view_history,rt,part,trial_type,trial_index,time_elapsed,internal_node_id,subject_id,stimulus,key_press,button_pressed,make_sense,correct,responses,correct_letters,set_number,size,letters_recalled,audio_id,audio_file,retransc
,,,fullscreen,0,42047,0.0-0.0,2,,,,,,,,,,,,,
"[{""page_index"":0,""viewing_time"":16638.380000018515},{""page_index"":1,""viewing_time"":9380.35999998101},{""page_index"":2,""viewing_time"":4714.625000022352}]",30742.905000021,instruction,instructions,1,72792,0.0-1.0,2,,,,,,,,,,,,,
"[{""page_index"":0,""viewing_time"":5132.215000019642},{""page_index"":1,""viewing_time"":2351.639999978943}]",7484.6149999939,instruction,instructions,2,80287,0.0-2.0,2,,,,,,,,,,,,,
,,Pause,html-keyboard-response,3,81301,0.0-3.0,2,"",,,,,,,,,,,,
,3531.329999998,sentence-pre,html-button-response,4,84840,0.0-4.0,2,"<p style='font-size: 1.3em'>When I get up in the morning, the first thing I do is feed my dog.</p>",,1,1,1,,,,,,,,
,,letter-pre,html-keyboard-response,5,85849,0.0-5.0,2,<p class='mono' style='font-size: 2.5em' >H</p>,,,,,,,,,,,,
,4600.3350000246,sentence-pre,html-button-response,6,90770,0.0-6.0,2,"<p style='font-size: 1.3em'>After yelling at the game, I knew I would have a tall voice.</p>",,0,0,1,,,,,,,,
,,letter-pre,html-keyboard-response,7,91779,0.0-7.0,2,<p class='mono' style='font-size: 2.5em' >K</p>,,,,,,,,,,,,
,4390.4200000106,sentence-pre,html-button-response,8,96501,0.0-8.0,2,<p style='font-size: 1.3em'>Mary was asked to stop at the new mall to pick up several items.</p>,,1,1,1,,,,,,,,
,,letter-pre,html-keyboard-response,9,97519,0.0-9.0,2,<p class='mono' style='font-size: 2.5em' >L</p>,,,,,,,,,,,,
,7235.4399999895,sentence-pre,html-button-response,10,105070,0.0-10.0,2,"<p style='font-size: 1.3em'>When it is cold, my mother always makes me wear a cap on my head.</p>",,0,1,0,,,,,,,,
,,letter-pre,html-keyboard-response,11,106082,0.0-11.0,2,<p class='mono' style='font-size: 2.5em' >N</p>,,,,,,,,,,,,
,8021.2199999951,recall-pre,survey-html-form,12,114429,0.0-12.0,2,,,,,0,"{""response"":""HKNL""}",HKLN,1,4,HKNL,,,
,4063.914999977,sentence-pre,html-button-response,13,118507,0.0-13.0,2,<p style='font-size: 1.3em'>All parents hope their list will grow up to be intelligent.</p>,,0,0,1,,,,,,,,
,,letter-pre,html-keyboard-response,14,119517,0.0-14.0,2,<p class='mono' style='font-size: 2.5em' >T</p>,,,,,,,,,,,,
,6015.7400000026,sentence-pre,html-button-response,15,125847,0.0-15.0,2,"<p style='font-size: 1.3em'>When John and Amy moved to Canada, their wish had a huge garage sale.</p>",,0,0,1,,,,,,,,
,,letter-pre,html-keyboard-response,16,126851,0.0-16.0,2,<p class='mono' style='font-size: 2.5em' >N</p>,,,,,,,,,,,,
,5969.8799999896,sentence-pre,html-button-response,17,133141,0.0-17.0,2,"<p style='font-size: 1.3em'>In the fall, my gift and I love to work together in the yard.</p>",,0,0,1,,,,,,,,
,,letter-pre,html-keyboard-response,18,134153,0.0-18.0,2,<p class='mono' style='font-size: 2.5em' >P</p>,,,,,,,,,,,,
,7137.6650000166,sentence-pre,html-button-response,19,141595,0.0-19.0,2,"<p style='font-size: 1.3em'>At church yesterday morning, Jim's daughter made a terrible plum.</p>",,1,0,0,,,,,,,,
,,letter-pre,html-keyboard-response,20,142605,0.0-20.0,2,<p class='mono' style='font-size: 2.5em' >Q</p>,,,,,,,,,,,,
,4722.929999989,sentence-pre,html-button-response,21,147647,0.0-21.0,2,"<p style='font-size: 1.3em'>Unaware of the hunter, the deer wandered into his shotgun range. </p>",,1,1,1,,,,,,,,
,,letter-pre,html-keyboard-response,22,148654,0.0-22.0,2,<p class='mono' style='font-size: 2.5em' >L</p>,,,,,,,,,,,,
,4337.2299999755,sentence-pre,html-button-response,23,153318,0.0-23.0,2,"<p style='font-size: 1.3em'>Since it was the last game, it was hard to cope with the loss.</p>",,1,1,1,,,,,,,,
,,letter-pre,html-keyboard-response,24,154329,0.0-24.0,2,<p class='mono' style='font-size: 2.5em' >S</p>,,,,,,,,,,,,
,7489.8099999991,recall-pre,survey-html-form,25,162130,0.0-25.0,2,,,,,0,"{""response"":""TNRQLS""}",TNPQLS,2,6,TNRQLS,,,
,6651.6150000098,sentence-pre,html-button-response,26,168790,0.0-26.0,2,"<p style='font-size: 1.3em'>Because she gets to knife early, Amy usually gets a good parking spot.</p>",,0,0,1,,,,,,,,
,,letter-pre,html-keyboard-response,27,169799,0.0-27.0,2,<p class='mono' style='font-size: 2.5em' >F</p>,,,,,,,,,,,,
,4415.6099999964,sentence-pre,html-button-response,28,174528,0.0-28.0,2,<p style='font-size: 1.3em'>The only furniture Steve had in his first bowl was his waterbed.</p>,,1,0,0,,,,,,,,
,,letter-pre,html-keyboard-response,29,175539,0.0-29.0,2,<p class='mono' style='font-size: 2.5em' >R</p>,,,,,,,,,,,,
,2714.7850000183,sentence-pre,html-button-response,30,178565,0.0-30.0,2,"<p style='font-size: 1.3em'>Last year, Mike was given detention for running in the hall.</p>",,1,1,1,,,,,,,,
,,letter-pre,html-keyboard-response,31,179581,0.0-31.0,2,<p class='mono' style='font-size: 2.5em' >Q</p>,,,,,,,,,,,,
,4331.4700000046,sentence-pre,html-button-response,32,184220,0.0-32.0,2,<p style='font-size: 1.3em'>The huge clouds covered the morning slide and the rain began to fall.</p>,,1,0,0,,,,,,,,
,,letter-pre,html-keyboard-response,33,185239,0.0-33.0,2,<p class='mono' style='font-size: 2.5em' >L</p>,,,,,,,,,,,,
,4320.4149999947,recall-pre,survey-html-form,34,189873,0.0-34.0,2,,,,,1,"{""response"":""FRQL""}",FRQL,3,4,FRQL,,,
,4353.6599999934,sentence-pre,html-button-response,35,194236,0.0-35.0,2,<p style='font-size: 1.3em'>After one date I knew that Linda's sister simply was not my type.</p>,,1,1,1,,,,,,,,
,,letter-pre,html-keyboard-response,36,195245,0.0-36.0,2,<p class='mono' style='font-size: 2.5em' >S</p>,,,,,,,,,,,,
,6488.2849999995,sentence-pre,html-button-response,37,202064,0.0-37.0,2,<p style='font-size: 1.3em'>Jason broke his arm when he fell from the tree onto the ground. </p>,,1,1,1,,,,,,,,
,,letter-pre,html-keyboard-response,38,203088,0.0-38.0,2,<p class='mono' style='font-size: 2.5em' >Y</p>,,,,,,,,,,,,
,12269.86499998,sentence-pre,html-button-response,39,215680,0.0-39.0,2,<p style='font-size: 1.3em'>Most people agree that Monday is the worst stick of the week.</p>,,0,0,1,,,,,,,,
,,letter-pre,html-keyboard-response,40,216698,0.0-40.0,2,<p class='mono' style='font-size: 2.5em' >J</p>,,,,,,,,,,,,
,10257.975000015,sentence-pre,html-button-response,41,227269,0.0-41.0,2,"<p style='font-size: 1.3em'>On warm sunny afternoons, I like to walk in the park.</p>",,1,1,1,,,,,,,,
,,letter-pre,html-keyboard-response,42,228274,0.0-42.0,2,<p class='mono' style='font-size: 2.5em' >P</p>,,,,,,,,,,,,
,3246.4150000014,sentence-pre,html-button-response,43,231840,0.0-43.0,2,<p style='font-size: 1.3em'>With intense determination he overcame all obstacles and won the race.</p>,,1,1,1,,,,,,,,
,,letter-pre,html-keyboard-response,44,232845,0.0-44.0,2,<p class='mono' style='font-size: 2.5em' >K</p>,,,,,,,,,,,,
,5688.4149999823,recall-pre,survey-html-form,45,238847,0.0-45.0,2,,,,,0,"{""response"":""JPK""}",SYJPK,4,5,JPK,,,
,3840.7000000007,sentence-pre,html-button-response,46,242696,0.0-46.0,2,<p style='font-size: 1.3em'>A person should never be discriminated against based on his race.</p>,,1,1,1,,,,,,,,
,,letter-pre,html-keyboard-response,47,243707,0.0-47.0,2,<p class='mono' style='font-size: 2.5em' >K</p>,,,,,,,,,,,,
,4684.5949999988,sentence-pre,html-button-response,48,248704,0.0-48.0,2,<p style='font-size: 1.3em'>My mother has always told me that it is not polite to shine.</p>,,0,0,1,,,,,,,,
,,letter-pre,html-keyboard-response,49,249709,0.0-49.0,2,<p class='mono' style='font-size: 2.5em' >L</p>,,,,,,,,,,,,
,11266.21999999,sentence-pre,html-button-response,50,261290,0.0-50.0,2,<p style='font-size: 1.3em'>The lemonade players decided to play two out of three sets.</p>,,1,0,0,,,,,,,,
,,letter-pre,html-keyboard-response,51,262299,0.0-51.0,2,<p class='mono' style='font-size: 2.5em' >Y</p>,,,,,,,,,,,,
,9648.7100000086,sentence-pre,html-button-response,52,272260,0.0-52.0,2,<p style='font-size: 1.3em'>Raising children requires a lot of dust and the ability to be firm.</p>,,1,0,0,,,,,,,,
,,letter-pre,html-keyboard-response,53,273314,0.0-53.0,2,<p class='mono' style='font-size: 2.5em' >S</p>,,,,,,,,,,,,
,3444.2500000005,sentence-pre,html-button-response,54,277067,0.0-54.0,2,<p style='font-size: 1.3em'>The gathering crowd turned to look when they heard the gun shot.</p>,,1,1,1,,,,,,,,
,,letter-pre,html-keyboard-response,55,278071,0.0-55.0,2,<p class='mono' style='font-size: 2.5em' >Q</p>,,,,,,,,,,,,
,9117.0500000007,sentence-pre,html-button-response,56,287508,0.0-56.0,2,<p style='font-size: 1.3em'>As soon as I get done taking this envy I am going to go home.</p>,,1,0,0,,,,,,,,
,,letter-pre,html-keyboard-response,57,288517,0.0-57.0,2,<p class='mono' style='font-size: 2.5em' >H</p>,,,,,,,,,,,,
,6060.5400000059,recall-pre,survey-html-form,58,294888,0.0-58.0,2,,,,,0,"{""response"":""TKSL""}",KLYSQH,5,6,TKSL,,,
,5759.9950000003,sentence-pre,html-button-response,59,300654,0.0-59.0,2,<p style='font-size: 1.3em'>Sue opened her purse and found she did not have any money.</p>,,1,1,1,,,,,,,,
,,letter-pre,html-keyboard-response,60,301668,0.0-60.0,2,<p class='mono' style='font-size: 2.5em' >H</p>,,,,,,,,,,,,
,8375.8350000135,sentence-pre,html-button-response,61,310356,0.0-61.0,2,"<p style='font-size: 1.3em'>Jill wanted a garden in her backyard, but the soil was mostly clay.</p>",,1,1,1,,,,,,,,
,,letter-pre,html-keyboard-response,62,311366,0.0-62.0,2,<p class='mono' style='font-size: 2.5em' >J</p>,,,,,,,,,,,,
,5563.0349999992,sentence-pre,html-button-response,63,317241,0.0-63.0,2,<p style='font-size: 1.3em'>Stacey stopped dating the light when she found out he had a wife.</p>,,0,0,1,,,,,,,,
,,letter-pre,html-keyboard-response,64,318249,0.0-64.0,2,<p class='mono' style='font-size: 2.5em' >R</p>,,,,,,,,,,,,
,18335.41,sentence-pre,html-button-response,65,336897,0.0-65.0,2,<p style='font-size: 1.3em'>I told the class that they would get a surprise if they were orange.</p>,,1,0,0,,,,,,,,
,,letter-pre,html-keyboard-response,66,337915,0.0-66.0,2,<p class='mono' style='font-size: 2.5em' >K</p>,,,,,,,,,,,,
,5648.1150000182,sentence-pre,html-button-response,67,343884,0.0-67.0,2,"<p style='font-size: 1.3em'>Jim was so tired of studying, he could not read another page.</p>",,1,1,1,,,,,,,,
,,letter-pre,html-keyboard-response,68,344898,0.0-68.0,2,<p class='mono' style='font-size: 2.5em' >S</p>,,,,,,,,,,,,
,5690.7300000021,recall-pre,survey-html-form,69,350913,0.0-69.0,2,,,,,1,"{""response"":""HJRKS""}",HJRKS,6,5,HJRKS,,,
"[{""page_index"":0,""viewing_time"":17605.745000008028},{""page_index"":1,""viewing_time"":5450.485000008484},{""page_index"":2,""viewing_time"":2171.4499999943655},{""page_index"":3,""viewing_time"":1407.4350000009872}]",26635.840000003,instruction,instructions,70,377562,0.0-70.0,2,,,,,,,,,,,,,
,,Pause,html-keyboard-response,71,378573,0.0-71.0,2,"",,,,,,,,,,,,
,,Beep Beep Beep,audio-keyboard-response,72,381837,0.0-72.0,2,../assets/beep_beep_beep.mp3,,,,,,,,,,,,
,,Pause,html-keyboard-response,73,382843,0.0-73.0,2,"",,,,,,,,,,,,
,,Audio,audio-keyboard-response,74,387913,0.0-74.0,2,audio/mp3/conf-001.mp3,,,,,,,,,,1,conf-001.mp3,
,12549.804999988,Retranscription,survey-html-form,75,400479,0.0-75.0,2,,,,,,"{""rep"":""What keeps us happy and healthy as we go through life""}",,,,,,,What keeps us happy and healthy as we go through life
,,Audio,audio-keyboard-response,76,405675,0.0-76.0,2,audio/mp3/conf-002.mp3,,,,,,,,,,2,conf-002.mp3,
,12499.634999986,Retranscription,survey-html-form,77,418183,0.0-77.0,2,,,,,,"{""rep"":""If you are going to invest now, in your future best self""}",,,,,,,"If you are going to invest now, in your future best self"
,,Audio,audio-keyboard-response,78,422044,0.0-78.0,2,audio/mp3/conf-003.mp3,,,,,,,,,,3,conf-003.mp3,
,7510.3799999924,Retranscription,survey-html-form,79,429571,0.0-79.0,2,,,,,,"{""rep"":""Where will you put your time and energy?\n""}",,,,,,,"Where will you put your time and energy?
"
,,Audio,audio-keyboard-response,80,433674,0.0-80.0,2,audio/mp3/conf-004.mp3,,,,,,,,,,4,conf-004.mp3,
,10009.030000016,Retranscription,survey-html-form,81,443692,0.0-81.0,2,,,,,,"{""rep"":""There was a recent survey of millenials, asking them\n""}",,,,,,,"There was a recent survey of millenials, asking them
"
,,Audio,audio-keyboard-response,82,447828,0.0-82.0,2,audio/mp3/conf-005.mp3,,,,,,,,,,5,conf-005.mp3,
,10010.255000001,Retranscription,survey-html-form,83,457845,0.0-83.0,2,,,,,,"{""rep"":""What there life most important go""}",,,,,,,What there life most important go
,,Audio,audio-keyboard-response,84,462744,0.0-84.0,2,audio/mp3/conf-006.mp3,,,,,,,,,,6,conf-006.mp3,
,10001.770000003,Retranscription,survey-html-form,85,472751,0.0-85.0,2,,,,,,"{""rep"":""And 80 percent said, that a major goal for th""}",,,,,,,"And 80 percent said, that a major goal for th"
,,Audio,audio-keyboard-response,86,475010,0.0-86.0,2,audio/mp3/conf-007.mp3,,,,,,,,,,7,conf-007.mp3,
,5010.9299999895,Retranscription,survey-html-form,87,480044,0.0-87.0,2,,,,,,"{""rep"":""Was to get rich\n\n\n""}",,,,,,,"Was to get rich


"
,,Audio,audio-keyboard-response,88,485016,0.0-88.0,2,audio/mp3/conf-008.mp3,,,,,,,,,,8,conf-008.mp3,
,9997.7700000163,Retranscription,survey-html-form,89,495030,0.0-89.0,2,,,,,,"{""rep"":""And the other fifty percent, of those same young adults\n""}",,,,,,,"And the other fifty percent, of those same young adults
"
,,Audio,audio-keyboard-response,90,501414,0.0-90.0,2,audio/mp3/conf-009.mp3,,,,,,,,,,9,conf-009.mp3,
,14993.654999998,Retranscription,survey-html-form,91,516439,0.0-91.0,2,,,,,,"{""rep"":""Said that a major life goals, was to be famous""}",,,,,,,"Said that a major life goals, was to be famous"
,,Audio,audio-keyboard-response,92,522744,0.0-92.0,2,audio/mp3/conf-010.mp3,,,,,,,,,,10,conf-010.mp3,
,15004.915000027,Retranscription,survey-html-form,93,537757,0.0-93.0,2,,,,,,"{""rep"":""And we're constantly told to lean in to push harder""}",,,,,,,And we're constantly told to lean in to push harder
,,Audio,audio-keyboard-response,94,540428,0.0-94.0,2,audio/mp3/conf-011.mp3,,,,,,,,,,11,conf-011.mp3,
,4983.6349999823,Retranscription,survey-html-form,95,545437,0.0-95.0,2,,,,,,"{""rep"":""And achieve more""}",,,,,,,And achieve more
,,Audio,audio-keyboard-response,96,549863,0.0-96.0,2,audio/mp3/conf-012.mp3,,,,,,,,,,12,conf-012.mp3,
,10006.824999989,Retranscription,survey-html-form,97,559876,0.0-97.0,2,,,,,,"{""rep"":""And those are the impression of things we need to go after""}",,,,,,,And those are the impression of things we need to go after
,,Audio,audio-keyboard-response,98,562674,0.0-98.0,2,audio/mp3/conf-013.mp3,,,,,,,,,,13,conf-013.mp3,
,4997.6550000138,Retranscription,survey-html-form,99,567679,0.0-99.0,2,,,,,,"{""rep"":""in order to have a good life""}",,,,,,,in order to have a good life
,,Audio,audio-keyboard-response,100,570924,0.0-100.0,2,audio/mp3/conf-014.mp3,,,,,,,,,,14,conf-014.mp3,
,7495.0599999866,Retranscription,survey-html-form,101,578440,0.0-101.0,2,,,,,,"{""rep"":""pictures of entire lives\n""}",,,,,,,"pictures of entire lives
"
,,Audio,audio-keyboard-response,102,581613,0.0-102.0,2,audio/mp3/conf-015.mp3,,,,,,,,,,15,conf-015.mp3,
,7510.7699999935,Retranscription,survey-html-form,103,589133,0.0-103.0,2,,,,,,"{""rep"":""of the choices that people make""}",,,,,,,of the choices that people make
,,Audio,audio-keyboard-response,104,592805,0.0-104.0,2,audio/mp3/conf-016.mp3,,,,,,,,,,16,conf-016.mp3,
,7489.2399999953,Retranscription,survey-html-form,105,600332,0.0-105.0,2,,,,,,"{""rep"":""and how those choices work out for them""}",,,,,,,and how those choices work out for them
,,Audio,audio-keyboard-response,106,604224,0.0-106.0,2,audio/mp3/conf-017.mp3,,,,,,,,,,17,conf-017.mp3,
,7481.6200000059,Retranscription,survey-html-form,107,611729,0.0-107.0,2,,,,,,"{""rep"":""those pictures are almost impossible to get""}",,,,,,,those pictures are almost impossible to get
,,Audio,audio-keyboard-response,108,615587,0.0-108.0,2,audio/mp3/conf-018.mp3,,,,,,,,,,18,conf-018.mp3,
,7502.0149999764,Retranscription,survey-html-form,109,623109,0.0-109.0,2,,,,,,"{""rep"":""most of what we know about human life""}",,,,,,,most of what we know about human life
,,Audio,audio-keyboard-response,110,627130,0.0-110.0,2,audio/mp3/conf-019.mp3,,,,,,,,,,19,conf-019.mp3,
,9995.7100000174,Retranscription,survey-html-form,111,637138,0.0-111.0,2,,,,,,"{""rep"":""we know from asking people about their past""}",,,,,,,we know from asking people about their past
,,Audio,audio-keyboard-response,112,642870,0.0-112.0,2,audio/mp3/conf-020.mp3,,,,,,,,,,20,conf-020.mp3,
,12495.82500002,Retranscription,survey-html-form,113,655377,0.0-113.0,2,,,,,,"{""rep"":""and as we know are insight 2020""}",,,,,,,and as we know are insight 2020
,,Audio,audio-keyboard-response,114,659513,0.0-114.0,2,audio/mp3/conf-021.mp3,,,,,,,,,,21,conf-021.mp3,
,9992.5800000201,Retranscription,survey-html-form,115,669520,0.0-115.0,2,,,,,,"{""rep"":""we forget of what happen in life""}",,,,,,,we forget of what happen in life
,,Audio,audio-keyboard-response,116,673163,0.0-116.0,2,audio/mp3/conf-022.mp3,,,,,,,,,,22,conf-022.mp3,
,7500.469999999,Retranscription,survey-html-form,117,680668,0.0-117.0,2,,,,,,"{""rep"":""and sometimes memory is write down creat""}",,,,,,,and sometimes memory is write down creat
,,Audio,audio-keyboard-response,118,686076,0.0-118.0,2,audio/mp3/conf-023.mp3,,,,,,,,,,23,conf-023.mp3,
,12501.149999996,Retranscription,survey-html-form,119,698587,0.0-119.0,2,,,,,,"{""rep"":""but what if we could watch entire lives""}",,,,,,,but what if we could watch entire lives
,,Audio,audio-keyboard-response,120,701964,0.0-120.0,2,audio/mp3/conf-024.mp3,,,,,,,,,,24,conf-024.mp3,
,7491.5350000083,Retranscription,survey-html-form,121,709469,0.0-121.0,2,,,,,,"{""rep"":""as they unfold through times""}",,,,,,,as they unfold through times
,,Audio,audio-keyboard-response,122,712257,0.0-122.0,2,audio/mp3/conf-025.mp3,,,,,,,,,,25,conf-025.mp3,
,5000.8349999844,Retranscription,survey-html-form,123,717269,0.0-123.0,2,,,,,,"{""rep"":""what if we could study people""}",,,,,,,what if we could study people
,,Audio,audio-keyboard-response,124,723241,0.0-124.0,2,audio/mp3/conf-026.mp3,,,,,,,,,,26,conf-026.mp3,
,12475.810000004,Retranscription,survey-html-form,125,735750,0.0-125.0,2,,,,,,"{""rep"":""from the time they were teenager to when they're""}",,,,,,,from the time they were teenager to when they're
,,Audio,audio-keyboard-response,126,739774,0.0-126.0,2,audio/mp3/conf-027.mp3,,,,,,,,,,27,conf-027.mp3,
,10000.624999986,Retranscription,survey-html-form,127,749783,0.0-127.0,2,,,,,,"{""rep"":""to see what keeps people happy and healthy""}",,,,,,,to see what keeps people happy and healthy
,,Audio,audio-keyboard-response,128,755458,0.0-128.0,2,audio/mp3/conf-028.mp3,,,,,,,,,,28,conf-028.mp3,
,12521.819999994,Retranscription,survey-html-form,129,767985,0.0-129.0,2,,,,,,"{""rep"":""we did that. The Harvard study of hard development""}",,,,,,,we did that. The Harvard study of hard development
,,Audio,audio-keyboard-response,130,773623,0.0-130.0,2,audio/mp3/conf-029.mp3,,,,,,,,,,29,conf-029.mp3,
,12501.340000017,Retranscription,survey-html-form,131,786137,0.0-131.0,2,,,,,,"{""rep"":""may be the longest study of adult life that's ever been done""}",,,,,,,may be the longest study of adult life that's ever been done
,,Audio,audio-keyboard-response,132,789333,0.0-132.0,2,audio/mp3/conf-030.mp3,,,,,,,,,,30,conf-030.mp3,
,7511.3200000196,Retranscription,survey-html-form,133,796849,0.0-133.0,2,,,,,,"{""rep"":""for 65 years""}",,,,,,,for 65 years
,,Audio,audio-keyboard-response,134,801914,0.0-134.0,2,audio/mp3/conf-031.mp3,,,,,,,,,,31,conf-031.mp3,
,12507.604999992,Retranscription,survey-html-form,135,814429,0.0-135.0,2,,,,,,"{""rep"":""We've tracked the lives of 724 men""}",,,,,,,We've tracked the lives of 724 men
,,Audio,audio-keyboard-response,136,819965,0.0-136.0,2,audio/mp3/conf-032.mp3,,,,,,,,,,32,conf-032.mp3,
,12487.62,Retranscription,survey-html-form,137,832472,0.0-137.0,2,,,,,,"{""rep"":""years after years, asking about they home life, their work, their heal""}",,,,,,,"years after years, asking about they home life, their work, their heal"
,,Audio,audio-keyboard-response,138,835726,0.0-138.0,2,audio/mp3/conf-033.mp3,,,,,,,,,,33,conf-033.mp3,
,7503.7050000101,Retranscription,survey-html-form,139,843238,0.0-139.0,2,,,,,,"{""rep"":""and of course, asking all along they way""}",,,,,,,"and of course, asking all along they way"
,,Audio,audio-keyboard-response,140,847403,0.0-140.0,2,audio/mp3/conf-034.mp3,,,,,,,,,,34,conf-034.mp3,
,9992.1150000009,Retranscription,survey-html-form,141,857408,0.0-141.0,2,,,,,,"{""rep"":""without knowing our their life stories are go""}",,,,,,,without knowing our their life stories are go
,,Audio,audio-keyboard-response,142,861373,0.0-142.0,2,audio/mp3/conf-035.mp3,,,,,,,,,,35,conf-035.mp3,
,7499.8699999996,Retranscription,survey-html-form,143,868882,0.0-143.0,2,,,,,,"{""rep"":""studies like this are extremly rare""}",,,,,,,studies like this are extremly rare
,,Audio,audio-keyboard-response,144,873340,0.0-144.0,2,audio/mp3/conf-036.mp3,,,,,,,,,,36,conf-036.mp3,
,9991.4049999788,Retranscription,survey-html-form,145,883355,0.0-145.0,2,,,,,,"{""rep"":""almost all of his fall apart over the decade""}",,,,,,,almost all of his fall apart over the decade
,,Audio,audio-keyboard-response,146,887074,0.0-146.0,2,audio/mp3/conf-037.mp3,,,,,,,,,,37,conf-037.mp3,
,7528.2000000007,Retranscription,survey-html-form,147,894611,0.0-147.0,2,,,,,,"{""rep"":""because too many people drop out of the study""}",,,,,,,because too many people drop out of the study
,,Audio,audio-keyboard-response,148,897993,0.0-148.0,2,audio/mp3/conf-038.mp3,,,,,,,,,,38,conf-038.mp3,
,7499.7000000149,Retranscription,survey-html-form,149,905504,0.0-149.0,2,,,,,,"{""rep"":""or funding for the research drop""}",,,,,,,or funding for the research drop
,,Audio,audio-keyboard-response,150,909901,0.0-150.0,2,audio/mp3/conf-039.mp3,,,,,,,,,,39,conf-039.mp3,
,10001.829999994,Retranscription,survey-html-form,151,919913,0.0-151.0,2,,,,,,"{""rep"":""or the researchers got distracted or they die""}",,,,,,,or the researchers got distracted or they die
,,Audio,audio-keyboard-response,152,923456,0.0-152.0,2,audio/mp3/conf-040.mp3,,,,,,,,,,40,conf-040.mp3,
,7512.3449999955,Retranscription,survey-html-form,153,930977,0.0-153.0,2,,,,,,"{""rep"":""and nobody moves the ball further down the field""}",,,,,,,and nobody moves the ball further down the field
,,Audio,audio-keyboard-response,154,933937,0.0-154.0,2,audio/mp3/conf-041.mp3,,,,,,,,,,41,conf-041.mp3,
,4995.8500000066,Retranscription,survey-html-form,155,938945,0.0-155.0,2,,,,,,"{""rep"":""but through a combination ""}",,,,,,,but through a combination 
,,Audio,audio-keyboard-response,156,943503,0.0-156.0,2,audio/mp3/conf-042.mp3,,,,,,,,,,42,conf-042.mp3,
,10010.804999998,Retranscription,survey-html-form,157,953519,0.0-157.0,2,,,,,,"{""rep"":""and the persistence of several generations of researchers""}",,,,,,,and the persistence of several generations of researchers
,,Audio,audio-keyboard-response,158,956053,0.0-158.0,2,audio/mp3/conf-043.mp3,,,,,,,,,,43,conf-043.mp3,
,4998.7499999988,Retranscription,survey-html-form,159,961059,0.0-159.0,2,,,,,,"{""rep"":""this study have survided""}",,,,,,,this study have survided
,,Audio,audio-keyboard-response,160,966073,0.0-160.0,2,audio/mp3/conf-044.mp3,,,,,,,,,,44,conf-044.mp3,
,12498.875000019,Retranscription,survey-html-form,161,978580,0.0-161.0,2,,,,,,"{""rep"":""about sixty of our 724 men""}",,,,,,,about sixty of our 724 men
,,Audio,audio-keyboard-response,162,982992,0.0-162.0,2,audio/mp3/conf-045.mp3,,,,,,,,,,45,conf-045.mp3,
,10001.805000007,Retranscription,survey-html-form,163,993005,0.0-163.0,2,,,,,,"{""rep"":""are still alive, still particpate in the study""}",,,,,,,"are still alive, still particpate in the study"
,,Audio,audio-keyboard-response,164,995823,0.0-164.0,2,audio/mp3/conf-046.mp3,,,,,,,,,,46,conf-046.mp3,
,5009.7999999998,Retranscription,survey-html-form,165,1000849,0.0-165.0,2,,,,,,"{""rep"":""most of them in their nineties""}",,,,,,,most of them in their nineties
,,Audio,audio-keyboard-response,166,1006024,0.0-166.0,2,audio/mp3/conf-047.mp3,,,,,,,,,,47,conf-047.mp3,
,12498.044999986,Retranscription,survey-html-form,167,1018529,0.0-167.0,2,,,,,,"{""rep"":""and you are now begining to study more than 2000 children""}",,,,,,,and you are now begining to study more than 2000 children
,,Audio,audio-keyboard-response,168,1020394,0.0-168.0,2,audio/mp3/conf-048.mp3,,,,,,,,,,48,conf-048.mp3,
,2508.8549999928,Retranscription,survey-html-form,169,1022912,0.0-169.0,2,,,,,,"{""rep"":""of this men""}",,,,,,,of this men
,,Audio,audio-keyboard-response,170,1025840,0.0-170.0,2,audio/mp3/conf-049.mp3,,,,,,,,,,49,conf-049.mp3,
,4995.185000007,Retranscription,survey-html-form,171,1030847,0.0-171.0,2,,,,,,"{""rep"":""and I'm the fourth director of the s""}",,,,,,,and I'm the fourth director of the s
,,Audio,audio-keyboard-response,172,1035995,0.0-172.0,2,audio/mp3/conf-050.mp3,,,,,,,,,,50,conf-050.mp3,
,12502.765000012,Retranscription,survey-html-form,173,1048508,0.0-173.0,2,,,,,,"{""rep"":""since 1938 we've track the lives of this men""}",,,,,,,since 1938 we've track the lives of this men
,,Audio,audio-keyboard-response,174,1054084,0.0-174.0,2,audio/mp3/conf-051.mp3,,,,,,,,,,51,conf-051.mp3,
,12515.119999996,Retranscription,survey-html-form,175,1066622,0.0-175.0,2,,,,,,"{""rep"":""sophmore in Harvard College""}",,,,,,,sophmore in Harvard College
,,Audio,audio-keyboard-response,176,1070343,0.0-176.0,2,audio/mp3/conf-052.mp3,,,,,,,,,,52,conf-052.mp3,
,7500.3450000077,Retranscription,survey-html-form,177,1077856,0.0-177.0,2,,,,,,"{""rep"":""they all finish college during WW2""}",,,,,,,they all finish college during WW2
,,Audio,audio-keyboard-response,178,1081144,0.0-178.0,2,audio/mp3/conf-053.mp3,,,,,,,,,,53,conf-053.mp3,
,7494.3700000003,Retranscription,survey-html-form,179,1088652,0.0-179.0,2,,,,,,"{""rep"":""and went off to serve in the wa""}",,,,,,,and went off to serve in the wa
,,Audio,audio-keyboard-response,180,1091514,0.0-180.0,2,audio/mp3/conf-054.mp3,,,,,,,,,,54,conf-054.mp3,
,5011.2649999792,Retranscription,survey-html-form,181,1096530,0.0-181.0,2,,,,,,"{""rep"":""and the second group that we folle""}",,,,,,,and the second group that we folle
,,Audio,audio-keyboard-response,182,1101404,0.0-182.0,2,audio/mp3/conf-055.mp3,,,,,,,,,,55,conf-055.mp3,
,9993.5699999915,Retranscription,survey-html-form,183,1111417,0.0-183.0,2,,,,,,"{""rep"":""was a group of boys from Boston poors neighbourhood""}",,,,,,,was a group of boys from Boston poors neighbourhood
,,Audio,audio-keyboard-response,184,1114453,0.0-184.0,2,audio/mp3/conf-056.mp3,,,,,,,,,,56,conf-056.mp3,
,7490.5549999967,Retranscription,survey-html-form,185,1121959,0.0-185.0,2,,,,,,"{""rep"":""boys who were chosen for the study""}",,,,,,,boys who were chosen for the study
,,Audio,audio-keyboard-response,186,1126254,0.0-186.0,2,audio/mp3/conf-057.mp3,,,,,,,,,,57,conf-057.mp3,
,10008.300000016,Retranscription,survey-html-form,187,1136276,0.0-187.0,2,,,,,,"{""rep"":""specifically because they were from some of the most troubled""}",,,,,,,specifically because they were from some of the most troubled
,,Audio,audio-keyboard-response,188,1141643,0.0-188.0,2,audio/mp3/conf-058.mp3,,,,,,,,,,58,conf-058.mp3,
,12536.010000011,Retranscription,survey-html-form,189,1154185,0.0-189.0,2,,,,,,"{""rep"":""and disavantaged family in Boston in the 1930's""}",,,,,,,and disavantaged family in Boston in the 1930's
,,Audio,audio-keyboard-response,190,1159464,0.0-190.0,2,audio/mp3/conf-059.mp3,,,,,,,,,,59,conf-059.mp3,
,12511.644999991,Retranscription,survey-html-form,191,1171982,0.0-191.0,2,,,,,,"{""rep"":""many lived in tenaments, without cold water""}",,,,,,,"many lived in tenaments, without cold water"
,,Audio,audio-keyboard-response,192,1174349,0.0-192.0,2,audio/mp3/conf-060.mp3,,,,,,,,,,60,conf-060.mp3,
,5002.0650000079,Retranscription,survey-html-form,193,1179357,0.0-193.0,2,,,,,,"{""rep"":""when they entered the study""}",,,,,,,when they entered the study
,,Audio,audio-keyboard-response,194,1182084,0.0-194.0,2,audio/mp3/conf-061.mp3,,,,,,,,,,61,conf-061.mp3,
,5008.8199999882,Retranscription,survey-html-form,195,1187110,0.0-195.0,2,,,,,,"{""rep"":""all of this teenagers,,""}",,,,,,,"all of this teenagers,,"
,,Audio,audio-keyboard-response,196,1191034,0.0-196.0,2,audio/mp3/conf-062.mp3,,,,,,,,,,62,conf-062.mp3,
,7501.4849999861,Retranscription,survey-html-form,197,1198545,0.0-197.0,2,,,,,,"{""rep"":""were interviewed, were giving medical exams""}",,,,,,,"were interviewed, were giving medical exams"
,,Audio,audio-keyboard-response,198,1202244,0.0-198.0,2,audio/mp3/conf-063.mp3,,,,,,,,,,63,conf-063.mp3,
,7499.2849999981,Retranscription,survey-html-form,199,1209758,0.0-199.0,2,,,,,,"{""rep"":""we went to their homes, and interviewed""}",,,,,,,"we went to their homes, and interviewed"
,,Audio,audio-keyboard-response,200,1215025,0.0-200.0,2,audio/mp3/conf-064.mp3,,,,,,,,,,64,conf-064.mp3,
,12510.955000005,Retranscription,survey-html-form,201,1227540,0.0-201.0,2,,,,,,"{""rep"":""ant then all this teenagers grew up and walks to adult life""}",,,,,,,ant then all this teenagers grew up and walks to adult life
,,Audio,audio-keyboard-response,202,1232884,0.0-202.0,2,audio/mp3/conf-065.mp3,,,,,,,,,,65,conf-065.mp3,
,12504.730000015,Retranscription,survey-html-form,203,1245399,0.0-203.0,2,,,,,,"{""rep"":""they became factory workers, and lawyers and ""}",,,,,,,"they became factory workers, and lawyers and "
,,Audio,audio-keyboard-response,204,1250154,0.0-204.0,2,audio/mp3/conf-066.mp3,,,,,,,,,,66,conf-066.mp3,
,10041.475000005,Retranscription,survey-html-form,205,1260212,0.0-205.0,2,,,,,,"{""rep"":""and doctors and one President of the United States""}",,,,,,,and doctors and one President of the United States
,,Audio,audio-keyboard-response,206,1263034,0.0-206.0,2,audio/mp3/conf-067.mp3,,,,,,,,,,67,conf-067.mp3,
,4999.9749999843,Retranscription,survey-html-form,207,1268044,0.0-207.0,2,,,,,,"{""rep"":""some developp Alco""}",,,,,,,some developp Alco
,,Audio,audio-keyboard-response,208,1270752,0.0-208.0,2,audio/mp3/conf-068.mp3,,,,,,,,,,68,conf-068.mp3,
,5002.5499999756,Retranscription,survey-html-form,209,1275766,0.0-209.0,2,,,,,,"{""rep"":""a few develop schizophren""}",,,,,,,a few develop schizophren
,,Audio,audio-keyboard-response,210,1281453,0.0-210.0,2,audio/mp3/conf-069.mp3,,,,,,,,,,69,conf-069.mp3,
,12495.900000009,Retranscription,survey-html-form,211,1293964,0.0-211.0,2,,,,,,"{""rep"":""some climbed the social ladder from the bottom all the way at the very top""}",,,,,,,some climbed the social ladder from the bottom all the way at the very top
,,Audio,audio-keyboard-response,212,1297974,0.0-212.0,2,audio/mp3/conf-070.mp3,,,,,,,,,,70,conf-070.mp3,
,7509.1649999958,Retranscription,survey-html-form,213,1305491,0.0-213.0,2,,,,,,"{""rep"":""and some made that journey on the opposite direc""}",,,,,,,and some made that journey on the opposite direc
,,Audio,audio-keyboard-response,214,1308503,0.0-214.0,2,audio/mp3/conf-071.mp3,,,,,,,,,,71,conf-071.mp3,
,5032.9400000046,Retranscription,survey-html-form,215,1313548,0.0-215.0,2,,,,,,"{""rep"":""the founders of this study""}",,,,,,,the founders of this study
,,Audio,audio-keyboard-response,216,1319353,0.0-216.0,2,audio/mp3/conf-072.mp3,,,,,,,,,,72,conf-072.mp3,
,12522.499999992,Retranscription,survey-html-form,217,1331890,0.0-217.0,2,,,,,,"{""rep"":""wouldn't imagine in their wildest dreams, that I'll ""}",,,,,,,"wouldn't imagine in their wildest dreams, that I'll "
,,Audio,audio-keyboard-response,218,1337652,0.0-218.0,2,audio/mp3/conf-073.mp3,,,,,,,,,,73,conf-073.mp3,
,12504.929999996,Retranscription,survey-html-form,219,1350173,0.0-219.0,2,,,,,,"{""rep"":""75 years later, telling you that the study still cont""}",,,,,,,"75 years later, telling you that the study still cont"
,,Audio,audio-keyboard-response,220,1352276,0.0-220.0,2,audio/mp3/conf-074.mp3,,,,,,,,,,74,conf-074.mp3,
,5009.0499999933,Retranscription,survey-html-form,221,1357289,0.0-221.0,2,,,,,,"{""rep"":""every 2 years""}",,,,,,,every 2 years
,,Audio,audio-keyboard-response,222,1362099,0.0-222.0,2,audio/mp3/conf-075.mp3,,,,,,,,,,75,conf-075.mp3,
,10008.724999992,Retranscription,survey-html-form,223,1372122,0.0-223.0,2,,,,,,"{""rep"":""our patients and dedicated staff reseachers calls""}",,,,,,,our patients and dedicated staff reseachers calls
,,Audio,audio-keyboard-response,224,1377784,0.0-224.0,2,audio/mp3/conf-076.mp3,,,,,,,,,,76,conf-076.mp3,
,12559.375000012,Retranscription,survey-html-form,225,1390349,0.0-225.0,2,,,,,,"{""rep"":""and ask them if we could send them more questions about their lives""}",,,,,,,and ask them if we could send them more questions about their lives
,,Audio,audio-keyboard-response,226,1394736,0.0-226.0,2,audio/mp3/conf-077.mp3,,,,,,,,,,77,conf-077.mp3,
,10020.180000021,Retranscription,survey-html-form,227,1404766,0.0-227.0,2,,,,,,"{""rep"":""many of the inner city Boston ask us""}",,,,,,,many of the inner city Boston ask us
,,Audio,audio-keyboard-response,228,1409278,0.0-228.0,2,audio/mp3/conf-078.mp3,,,,,,,,,,78,conf-078.mp3,
,10014.755000011,Retranscription,survey-html-form,229,1419298,0.0-229.0,2,,,,,,"{""rep"":""why do you still want to study me, my life in""}",,,,,,,"why do you still want to study me, my life in"
,,Audio,audio-keyboard-response,230,1422724,0.0-230.0,2,audio/mp3/conf-079.mp3,,,,,,,,,,79,conf-079.mp3,
,7452.3399999889,Retranscription,survey-html-form,231,1430232,0.0-231.0,2,,,,,,"{""rep"":""the Harvard men, never ask that question""}",,,,,,,"the Harvard men, never ask that question"
,,Audio,audio-keyboard-response,232,1433832,0.0-232.0,2,audio/mp3/conf-080.mp3,,,,,,,,,,80,conf-080.mp3,
,7490.9899999911,Retranscription,survey-html-form,233,1441347,0.0-233.0,2,,,,,,"{""rep"":""to get the clearest pictures of this live""}",,,,,,,to get the clearest pictures of this live
,,Audio,audio-keyboard-response,234,1444523,0.0-234.0,2,audio/mp3/conf-081.mp3,,,,,,,,,,81,conf-081.mp3,
,7529.2699999991,Retranscription,survey-html-form,235,1452066,0.0-235.0,2,,,,,,"{""rep"":""we don't just send them questionnaires""}",,,,,,,we don't just send them questionnaires
,,Audio,audio-keyboard-response,236,1455323,0.0-236.0,2,audio/mp3/conf-082.mp3,,,,,,,,,,82,conf-082.mp3,
,7477.979999996,Retranscription,survey-html-form,237,1462838,0.0-237.0,2,,,,,,"{""rep"":""we interview them in their living room""}",,,,,,,we interview them in their living room
,,Audio,audio-keyboard-response,238,1466645,0.0-238.0,2,audio/mp3/conf-083.mp3,,,,,,,,,,83,conf-083.mp3,
,7561.5749999997,Retranscription,survey-html-form,239,1474210,0.0-239.0,2,,,,,,"{""rep"":""we get their medical records from their doctors""}",,,,,,,we get their medical records from their doctors
,,Audio,audio-keyboard-response,240,1476353,0.0-240.0,2,audio/mp3/conf-084.mp3,,,,,,,,,,84,conf-084.mp3,
,4986.0699999845,Retranscription,survey-html-form,241,1481362,0.0-241.0,2,,,,,,"{""rep"":""we drow their blodo""}",,,,,,,we drow their blodo
,,Audio,audio-keyboard-response,242,1483693,0.0-242.0,2,audio/mp3/conf-085.mp3,,,,,,,,,,85,conf-085.mp3,
,4999.6650000103,Retranscription,survey-html-form,243,1488701,0.0-243.0,2,,,,,,"{""rep"":""we scan their brains""}",,,,,,,we scan their brains
,,Audio,audio-keyboard-response,244,1490925,0.0-244.0,2,audio/mp3/conf-086.mp3,,,,,,,,,,86,conf-086.mp3,
,4999.840000004,Retranscription,survey-html-form,245,1495936,0.0-245.0,2,,,,,,"{""rep"":""we talk to their children""}",,,,,,,we talk to their children
,,Audio,audio-keyboard-response,246,1501384,0.0-246.0,2,audio/mp3/conf-087.mp3,,,,,,,,,,87,conf-087.mp3,
,12539.745000016,Retranscription,survey-html-form,247,1513942,0.0-247.0,2,,,,,,"{""rep"":""we video them talking to their wives about thir deepest concerns""}",,,,,,,we video them talking to their wives about thir deepest concerns
,,Audio,audio-keyboard-response,248,1518515,0.0-248.0,2,audio/mp3/conf-088.mp3,,,,,,,,,,88,conf-088.mp3,
,9964.6249999932,Retranscription,survey-html-form,249,1528524,0.0-249.0,2,,,,,,"{""rep"":""and when finally a decades ago, we ask the wives""}",,,,,,,"and when finally a decades ago, we ask the wives"
,,Audio,audio-keyboard-response,250,1531883,0.0-250.0,2,audio/mp3/conf-089.mp3,,,,,,,,,,89,conf-089.mp3,
,7470.4700000002,Retranscription,survey-html-form,251,1539390,0.0-251.0,2,,,,,,"{""rep"":""if they will join us as member of the study""}",,,,,,,if they will join us as member of the study
,,Audio,audio-keyboard-response,252,1543053,0.0-252.0,2,audio/mp3/conf-090.mp3,,,,,,,,,,90,conf-090.mp3,
,7493.455000018,Retranscription,survey-html-form,253,1550565,0.0-253.0,2,,,,,,"{""rep"":""many of the women said you know it's about times""}",,,,,,,many of the women said you know it's about times
,,Audio,audio-keyboard-response,254,1552825,0.0-254.0,2,audio/mp3/conf-091.mp3,,,,,,,,,,91,conf-091.mp3,
,4995.5149999878,Retranscription,survey-html-form,255,1557829,0.0-255.0,2,,,,,,"{""rep"":""so what have we learnes?""}",,,,,,,so what have we learnes?
,,Audio,audio-keyboard-response,256,1560965,0.0-256.0,2,audio/mp3/conf-092.mp3,,,,,,,,,,92,conf-092.mp3,
,7633.0050000106,Retranscription,survey-html-form,257,1568624,0.0-257.0,2,,,,,,"{""rep"":""what are the lessons that come""}",,,,,,,what are the lessons that come
,,Audio,audio-keyboard-response,258,1574492,0.0-258.0,2,audio/mp3/conf-093.mp3,,,,,,,,,,93,conf-093.mp3,
,12500.610000017,Retranscription,survey-html-form,259,1586997,0.0-259.0,2,,,,,,"{""rep"":""from the tenth of thousands of pages that we gerenate""}",,,,,,,from the tenth of thousands of pages that we gerenate
,,Audio,audio-keyboard-response,260,1590324,0.0-260.0,2,audio/mp3/conf-094.mp3,,,,,,,,,,94,conf-094.mp3,
,7509.6100000083,Retranscription,survey-html-form,261,1597842,0.0-261.0,2,,,,,,"{""rep"":""well the lessons aren't about wealth""}",,,,,,,well the lessons aren't about wealth
,,Audio,audio-keyboard-response,262,1599744,0.0-262.0,2,audio/mp3/conf-095.mp3,,,,,,,,,,95,conf-095.mp3,
,2474.9899999879,Retranscription,survey-html-form,263,1602255,0.0-263.0,2,,,,,,"{""rep"":""or fame""}",,,,,,,or fame
,,Audio,audio-keyboard-response,264,1605162,0.0-264.0,2,audio/mp3/conf-096.mp3,,,,,,,,,,96,conf-096.mp3,
,4963.4849999857,Retranscription,survey-html-form,265,1610170,0.0-265.0,2,,,,,,"{""rep"":""or working harder and harder""}",,,,,,,or working harder and harder
,,Audio,audio-keyboard-response,266,1612545,0.0-266.0,2,audio/mp3/conf-097.mp3,,,,,,,,,,97,conf-097.mp3,
,4985.3900000162,Retranscription,survey-html-form,267,1617549,0.0-267.0,2,,,,,,"{""rep"":""the clearest message""}",,,,,,,the clearest message
,,Audio,audio-keyboard-response,268,1622063,0.0-268.0,2,audio/mp3/conf-098.mp3,,,,,,,,,,98,conf-098.mp3,
,9994.6249999921,Retranscription,survey-html-form,269,1632070,0.0-269.0,2,,,,,,"{""rep"":""that we get from this 75 year study is this""}",,,,,,,that we get from this 75 year study is this
,,Audio,audio-keyboard-response,270,1636913,0.0-270.0,2,audio/mp3/conf-099.mp3,,,,,,,,,,99,conf-099.mp3,
,9993.0100000056,Retranscription,survey-html-form,271,1646920,0.0-271.0,2,,,,,,"{""rep"":""good relationshipp keep us happier an dhealthier""}",,,,,,,good relationshipp keep us happier an dhealthier
,,Audio,audio-keyboard-response,272,1651035,0.0-272.0,2,audio/mp3/conf-100.mp3,,,,,,,,,,100,conf-100.mp3,
,9976.5349999943,Retranscription,survey-html-form,273,1661047,0.0-273.0,2,,,,,,"{""rep"":""we've learn 3 big lessons about relationship""}",,,,,,,we've learn 3 big lessons about relationship
,,Audio,audio-keyboard-response,274,1666254,0.0-274.0,2,audio/mp3/conf-101.mp3,,,,,,,,,,101,conf-101.mp3,
,12473.639999982,Retranscription,survey-html-form,275,1678771,0.0-275.0,2,,,,,,"{""rep"":""is that social connections are really good for us""}",,,,,,,is that social connections are really good for us
,,Audio,audio-keyboard-response,276,1681472,0.0-276.0,2,audio/mp3/conf-102.mp3,,,,,,,,,,102,conf-102.mp3,
,4970.1850000129,Retranscription,survey-html-form,277,1686478,0.0-277.0,2,,,,,,"{""rep"":""and that loneliness kills""}",,,,,,,and that loneliness kills
,,Audio,audio-keyboard-response,278,1690762,0.0-278.0,2,audio/mp3/conf-103.mp3,,,,,,,,,,103,conf-103.mp3,
,9973.8450000004,Retranscription,survey-html-form,279,1700795,0.0-279.0,2,,,,,,"{""rep"":""it turns out that people who are more socially connecterd""}",,,,,,,it turns out that people who are more socially connecterd
,,Audio,audio-keyboard-response,280,1704465,0.0-280.0,2,audio/mp3/conf-104.mp3,,,,,,,,,,104,conf-104.mp3,
,7515.1100000076,Retranscription,survey-html-form,281,1711988,0.0-281.0,2,,,,,,"{""rep"":""to family, to friends, to community""}",,,,,,,"to family, to friends, to community"
,,Audio,audio-keyboard-response,282,1717465,0.0-282.0,2,audio/mp3/conf-105.mp3,,,,,,,,,,105,conf-105.mp3,
,12470.904999995,Retranscription,survey-html-form,283,1729975,0.0-283.0,2,,,,,,"{""rep"":""are happpier, are physically healthier and live longer""}",,,,,,,"are happpier, are physically healthier and live longer"
,,Audio,audio-keyboard-response,284,1733277,0.0-284.0,2,audio/mp3/conf-106.mp3,,,,,,,,,,106,conf-106.mp3,
,7502.8250000032,Retranscription,survey-html-form,285,1740793,0.0-285.0,2,,,,,,"{""rep"":""than people who are less well connected""}",,,,,,,than people who are less well connected
,,Audio,audio-keyboard-response,286,1744883,0.0-286.0,2,audio/mp3/conf-107.mp3,,,,,,,,,,107,conf-107.mp3,
,9971.904999984,Retranscription,survey-html-form,287,1754898,0.0-287.0,2,,,,,,"{""rep"":""and the experience of loneliness turns out to be""}",,,,,,,and the experience of loneliness turns out to be
,,Audio,audio-keyboard-response,288,1760096,0.0-288.0,2,audio/mp3/conf-108.mp3,,,,,,,,,,108,conf-108.mp3,
,12563.305000018,Retranscription,survey-html-form,289,1772684,0.0-289.0,2,,,,,,"{""rep"":""people who are more isolated than they want to be from others""}",,,,,,,people who are more isolated than they want to be from others
,,Audio,audio-keyboard-response,290,1776313,0.0-290.0,2,audio/mp3/conf-109.mp3,,,,,,,,,,109,conf-109.mp3,
,7500.469999999,Retranscription,survey-html-form,291,1783819,0.0-291.0,2,,,,,,"{""rep"":""find that they are less happy""}",,,,,,,find that they are less happy
,,Audio,audio-keyboard-response,292,1787532,0.0-292.0,2,audio/mp3/conf-110.mp3,,,,,,,,,,110,conf-110.mp3,
,7501.0450000118,Retranscription,survey-html-form,293,1795038,0.0-293.0,2,,,,,,"{""rep"":""their health decline earlier in mid-l""}",,,,,,,their health decline earlier in mid-l
,,Audio,audio-keyboard-response,294,1799983,0.0-294.0,2,audio/mp3/conf-111.mp3,,,,,,,,,,111,conf-111.mp3,
,9995.0649999955,Retranscription,survey-html-form,295,1809997,0.0-295.0,2,,,,,,"{""rep"":""their brain decline sooner and live shorter life""}",,,,,,,their brain decline sooner and live shorter life
,,Audio,audio-keyboard-response,296,1812503,0.0-296.0,2,audio/mp3/conf-112.mp3,,,,,,,,,,112,conf-112.mp3,
,4988.0199999898,Retranscription,survey-html-form,297,1817520,0.0-297.0,2,,,,,,"{""rep"":""than people who are not lo""}",,,,,,,than people who are not lo
,,Audio,audio-keyboard-response,298,1819777,0.0-298.0,2,audio/mp3/conf-113.mp3,,,,,,,,,,113,conf-113.mp3,
,4994.3999999959,Retranscription,survey-html-form,299,1824801,0.0-299.0,2,,,,,,"{""rep"":""and the sad fact""}",,,,,,,and the sad fact
,,Audio,audio-keyboard-response,300,1830594,0.0-300.0,2,audio/mp3/conf-114.mp3,,,,,,,,,,114,conf-114.mp3,
,12497.669999982,Retranscription,survey-html-form,301,1843100,0.0-301.0,2,,,,,,"{""rep"":""is that at any giving time, american will report""}",,,,,,,"is that at any giving time, american will report"
,,Audio,audio-keyboard-response,302,1845034,0.0-302.0,2,audio/mp3/conf-115.mp3,,,,,,,,,,115,conf-115.mp3,
,2495.4349999898,Retranscription,survey-html-form,303,1847546,0.0-303.0,2,,,,,,"{""rep"":""that they're l""}",,,,,,,that they're l
,,Audio,audio-keyboard-response,304,1853254,0.0-304.0,2,audio/mp3/conf-116.mp3,,,,,,,,,,116,conf-116.mp3,
,12521.040000021,Retranscription,survey-html-form,305,1865786,0.0-305.0,2,,,,,,"{""rep"":""and we know that you can be lonely in a crowd and we can be lonely in a ""}",,,,,,,and we know that you can be lonely in a crowd and we can be lonely in a 
,,Audio,audio-keyboard-response,306,1869142,0.0-306.0,2,audio/mp3/conf-117.mp3,,,,,,,,,,117,conf-117.mp3,
,7492.3750000016,Retranscription,survey-html-form,307,1876648,0.0-307.0,2,,,,,,"{""rep"":""so the second big lesson that we learn is""}",,,,,,,so the second big lesson that we learn is
,,Audio,audio-keyboard-response,308,1880374,0.0-308.0,2,audio/mp3/conf-118.mp3,,,,,,,,,,118,conf-118.mp3,
,7483.9900000079,Retranscription,survey-html-form,309,1887893,0.0-309.0,2,,,,,,"{""rep"":""that it's not just about the numbers of friends you ""}",,,,,,,that it's not just about the numbers of friends you 
,,Audio,audio-keyboard-response,310,1892442,0.0-310.0,2,audio/mp3/conf-119.mp3,,,,,,,,,,119,conf-119.mp3,
,9983.5549999843,Retranscription,survey-html-form,311,1902448,0.0-311.0,2,,,,,,"{""rep"":""and it's not wether or not you are in a committed relatio""}",,,,,,,and it's not wether or not you are in a committed relatio
,,Audio,audio-keyboard-response,312,1907921,0.0-312.0,2,audio/mp3/conf-120.mp3,,,,,,,,,,120,conf-120.mp3,
,12500.445000012,Retranscription,survey-html-form,313,1920427,0.0-313.0,2,,,,,,"{""rep"":""but it's the quality of your relationship that matters""}",,,,,,,but it's the quality of your relationship that matters
,,Audio,audio-keyboard-response,314,1925493,0.0-314.0,2,audio/mp3/conf-121.mp3,,,,,,,,,,121,conf-121.mp3,
,12500.12500002,Retranscription,survey-html-form,315,1937998,0.0-315.0,2,,,,,,"{""rep"":""it turns out that living in a mist of conflict is rell""}",,,,,,,it turns out that living in a mist of conflict is rell
,,Audio,audio-keyboard-response,316,1942761,0.0-316.0,2,audio/mp3/conf-122.mp3,,,,,,,,,,122,conf-122.mp3,
,9983.3950000175,Retranscription,survey-html-form,317,1952765,0.0-317.0,2,,,,,,"{""rep"":""like conflict marriage for example, without much affecti""}",,,,,,,"like conflict marriage for example, without much affecti"
,,Audio,audio-keyboard-response,318,1956483,0.0-318.0,2,audio/mp3/conf-123.mp3,,,,,,,,,,123,conf-123.mp3,
,7485.0750000041,Retranscription,survey-html-form,319,1964007,0.0-319.0,2,,,,,,"{""rep"":""turns out to be very bad for our health""}",,,,,,,turns out to be very bad for our health
,,Audio,audio-keyboard-response,320,1967322,0.0-320.0,2,audio/mp3/conf-124.mp3,,,,,,,,,,124,conf-124.mp3,
,7500.6749999884,Retranscription,survey-html-form,321,1974828,0.0-321.0,2,,,,,,"{""rep"":""perhaps worst than getting di""}",,,,,,,perhaps worst than getting di
,,Audio,audio-keyboard-response,322,1980074,0.0-322.0,2,audio/mp3/conf-125.mp3,,,,,,,,,,125,conf-125.mp3,
,12498.489999998,Retranscription,survey-html-form,323,1992579,0.0-323.0,2,,,,,,"{""rep"":""and living in the mist of good relationship is protective""}",,,,,,,and living in the mist of good relationship is protective
,,Audio,audio-keyboard-response,324,1996812,0.0-324.0,2,audio/mp3/conf-126.mp3,,,,,,,,,,126,conf-126.mp3,
,10002.05000001,Retranscription,survey-html-form,325,2006825,0.0-325.0,2,,,,,,"{""rep"":""once we have followed our men all the way to their 8""}",,,,,,,once we have followed our men all the way to their 8
,,Audio,audio-keyboard-response,326,2010013,0.0-326.0,2,audio/mp3/conf-127.mp3,,,,,,,,,,127,conf-127.mp3,
,7500.5700000038,Retranscription,survey-html-form,327,2017519,0.0-327.0,2,,,,,,"{""rep"":""we want to look back at them at their mid lif""}",,,,,,,we want to look back at them at their mid lif
,,Audio,audio-keyboard-response,328,2019994,0.0-328.0,2,audio/mp3/conf-128.mp3,,,,,,,,,,128,conf-128.mp3,
,4990.4699999897,Retranscription,survey-html-form,329,2025005,0.0-329.0,2,,,,,,"{""rep"":""and to see if w""}",,,,,,,and to see if w
,,Audio,audio-keyboard-response,330,2029604,0.0-330.0,2,audio/mp3/conf-129.mp3,,,,,,,,,,129,conf-129.mp3,
,9972.9050000021,Retranscription,survey-html-form,331,2039609,0.0-331.0,2,,,,,,"{""rep"":""who's gonna grow into a happy 80 o""}",,,,,,,who's gonna grow into a happy 80 o
,,Audio,audio-keyboard-response,332,2041522,0.0-332.0,2,audio/mp3/conf-130.mp3,,,,,,,,,,130,conf-130.mp3,
,2506.0899999803,Retranscription,survey-html-form,333,2044032,0.0-333.0,2,,,,,,"{""rep"":""and who was""}",,,,,,,and who was
,,Audio,audio-keyboard-response,334,2046483,0.0-334.0,2,audio/mp3/conf-131.mp3,,,,,,,,,,131,conf-131.mp3,
,4992.995000008,Retranscription,survey-html-form,335,2051488,0.0-335.0,2,,,,,,"{""rep"":""and when we gathered ""}",,,,,,,and when we gathered 
,,Audio,audio-keyboard-response,336,2055642,0.0-336.0,2,audio/mp3/conf-132.mp3,,,,,,,,,,132,conf-132.mp3,
,9974.5199999888,Retranscription,survey-html-form,337,2065648,0.0-337.0,2,,,,,,"{""rep"":""everything we knew about them at age 5""}",,,,,,,everything we knew about them at age 5
,,Audio,audio-keyboard-response,338,2071413,0.0-338.0,2,audio/mp3/conf-133.mp3,,,,,,,,,,133,conf-133.mp3,
,12503.419999994,Retranscription,survey-html-form,339,2083922,0.0-339.0,2,,,,,,"{""rep"":""it wasn't their cholesterol level that predict how they'e""}",,,,,,,it wasn't their cholesterol level that predict how they'e
,,Audio,audio-keyboard-response,340,2088395,0.0-340.0,2,audio/mp3/conf-134.mp3,,,,,,,,,,134,conf-134.mp3,
,9997.0899999901,Retranscription,survey-html-form,341,2098404,0.0-341.0,2,,,,,,"{""rep"":""it was how satisfied they were in their relationsh""}",,,,,,,it was how satisfied they were in their relationsh
,,Audio,audio-keyboard-response,342,2104023,0.0-342.0,2,audio/mp3/conf-135.mp3,,,,,,,,,,135,conf-135.mp3,
,12502.24999999,Retranscription,survey-html-form,343,2116531,0.0-343.0,2,,,,,,"{""rep"":""the people who were the most satisfied in thei lives at age 50""}",,,,,,,the people who were the most satisfied in thei lives at age 50
,,Audio,audio-keyboard-response,344,2119772,0.0-344.0,2,audio/mp3/conf-136.mp3,,,,,,,,,,136,conf-136.mp3,
,7471.0799999889,Retranscription,survey-html-form,345,2127279,0.0-345.0,2,,,,,,"{""rep"":""were healthiest at age ""}",,,,,,,were healthiest at age 
,,Audio,audio-keyboard-response,346,2130394,0.0-346.0,2,audio/mp3/conf-137.mp3,,,,,,,,,,137,conf-137.mp3,
,7470.7449999992,Retranscription,survey-html-form,347,2137900,0.0-347.0,2,,,,,,"{""rep"":""and good close relationship""}",,,,,,,and good close relationship
,,Audio,audio-keyboard-response,348,2142695,0.0-348.0,2,audio/mp3/conf-138.mp3,,,,,,,,,,138,conf-138.mp3,
,9995.4750000034,Retranscription,survey-html-form,349,2152704,0.0-349.0,2,,,,,,"{""rep"":""seem to buffer us getting old""}",,,,,,,seem to buffer us getting old
,,Audio,audio-keyboard-response,350,2156972,0.0-350.0,2,audio/mp3/conf-139.mp3,,,,,,,,,,139,conf-139.mp3,
,9993.2199999746,Retranscription,survey-html-form,351,2166978,0.0-351.0,2,,,,,,"{""rep"":""our most happily partners, men and women""}",,,,,,,"our most happily partners, men and women"
,,Audio,audio-keyboard-response,352,2169762,0.0-352.0,2,audio/mp3/conf-140.mp3,,,,,,,,,,140,conf-140.mp3,
,4997.4250000082,Retranscription,survey-html-form,353,2174768,0.0-353.0,2,,,,,,"{""rep"":""reported in their 80's""}",,,,,,,reported in their 80's
,,Audio,audio-keyboard-response,354,2180584,0.0-354.0,2,audio/mp3/conf-141.mp3,,,,,,,,,,141,conf-141.mp3,
,12468.915000005,Retranscription,survey-html-form,355,2193089,0.0-355.0,2,,,,,,"{""rep"":""that on the days they had physical pain, their moods were js""}",,,,,,,"that on the days they had physical pain, their moods were js"
,,Audio,audio-keyboard-response,356,2196882,0.0-356.0,2,audio/mp3/conf-142.mp3,,,,,,,,,,142,conf-142.mp3,
,7499.2250000066,Retranscription,survey-html-form,357,2204386,0.0-357.0,2,,,,,,"{""rep"":""but the people who are in unhappy relationshi""}",,,,,,,but the people who are in unhappy relationshi
,,Audio,audio-keyboard-response,358,2208252,0.0-358.0,2,audio/mp3/conf-143.mp3,,,,,,,,,,143,conf-143.mp3,
,7482.2099999874,Retranscription,survey-html-form,359,2215760,0.0-359.0,2,,,,,,"{""rep"":""on the day, they reported more physical pains""}",,,,,,,"on the day, they reported more physical pains"
,,Audio,audio-keyboard-response,360,2219703,0.0-360.0,2,audio/mp3/conf-144.mp3,,,,,,,,,,144,conf-144.mp3,
,7503.1900000176,Retranscription,survey-html-form,361,2227216,0.0-361.0,2,,,,,,"{""rep"":""it was magnified by more emotional pain""}",,,,,,,it was magnified by more emotional pain
,,Audio,audio-keyboard-response,362,2232573,0.0-362.0,2,audio/mp3/conf-145.mp3,,,,,,,,,,145,conf-145.mp3,
,12501.115000021,Retranscription,survey-html-form,363,2245079,0.0-363.0,2,,,,,,"{""rep"":""adnt the third big lessons that we learn about relatio""}",,,,,,,adnt the third big lessons that we learn about relatio
,,Audio,audio-keyboard-response,364,2250773,0.0-364.0,2,audio/mp3/conf-146.mp3,,,,,,,,,,146,conf-146.mp3,
,12492.570000002,Retranscription,survey-html-form,365,2263279,0.0-365.0,2,,,,,,"{""rep"":""is that good relationship don't protect our bodies but our brains""}",,,,,,,is that good relationship don't protect our bodies but our brains
,,Audio,audio-keyboard-response,366,2268873,0.0-366.0,2,audio/mp3/conf-147.mp3,,,,,,,,,,147,conf-147.mp3,
,12466.554999991,Retranscription,survey-html-form,367,2281378,0.0-367.0,2,,,,,,"{""rep"":""it turns out that to be in a secure attached relationship""}",,,,,,,it turns out that to be in a secure attached relationship
,,Audio,audio-keyboard-response,368,2285590,0.0-368.0,2,audio/mp3/conf-148.mp3,,,,,,,,,,148,conf-148.mp3,
,9948.9950000132,Retranscription,survey-html-form,369,2295596,0.0-369.0,2,,,,,,"{""rep"":""to another person in your 80's is protective""}",,,,,,,to another person in your 80's is protective
,,Audio,audio-keyboard-response,370,2301212,0.0-370.0,2,audio/mp3/conf-149.mp3,,,,,,,,,,149,conf-149.mp3,
,12475.364999991,Retranscription,survey-html-form,371,2313721,0.0-371.0,2,,,,,,"{""rep"":""but the people who are in a relationship can count on another perosn""}",,,,,,,but the people who are in a relationship can count on another perosn
,,Audio,audio-keyboard-response,372,2316103,0.0-372.0,2,audio/mp3/conf-150.mp3,,,,,,,,,,150,conf-150.mp3,
,4999.8499999926,Retranscription,survey-html-form,373,2321108,0.0-373.0,2,,,,,,"{""rep"":""in times of need""}",,,,,,,in times of need
,,Audio,audio-keyboard-response,374,2325302,0.0-374.0,2,audio/mp3/conf-151.mp3,,,,,,,,,,151,conf-151.mp3,
,9967.6599999946,Retranscription,survey-html-form,375,2335308,0.0-375.0,2,,,,,,"{""rep"":""those people memories stay sharper longer""}",,,,,,,those people memories stay sharper longer
,,Audio,audio-keyboard-response,376,2340572,0.0-376.0,2,audio/mp3/conf-152.mp3,,,,,,,,,,152,conf-152.mp3,
,12501.199999999,Retranscription,survey-html-form,377,2353077,0.0-377.0,2,,,,,,"{""rep"":""and the people in relationship feel they can count on the ""}",,,,,,,and the people in relationship feel they can count on the 
,,Audio,audio-keyboard-response,378,2357814,0.0-378.0,2,audio/mp3/conf-153.mp3,,,,,,,,,,153,conf-153.mp3,
,9990.3199999826,Retranscription,survey-html-form,379,2367821,0.0-379.0,2,,,,,,"{""rep"":""those are the people who experiences earlier ""}",,,,,,,those are the people who experiences earlier 
,,Audio,audio-keyboard-response,380,2372701,0.0-380.0,2,audio/mp3/conf-154.mp3,,,,,,,,,,154,conf-154.mp3,
,9998.3350000111,Retranscription,survey-html-form,381,2382712,0.0-381.0,2,,,,,,"{""rep"":""and good relationship, they don't have to be smooth all ti""}",,,,,,,"and good relationship, they don't have to be smooth all ti"
,,Audio,audio-keyboard-response,382,2388503,0.0-382.0,2,audio/mp3/conf-155.mp3,,,,,,,,,,155,conf-155.mp3,
,12484.595000017,Retranscription,survey-html-form,383,2401012,0.0-383.0,2,,,,,,"{""rep"":""a 80 couple could day and d""}",,,,,,,a 80 couple could day and d
,,Audio,audio-keyboard-response,384,2406443,0.0-384.0,2,audio/mp3/conf-156.mp3,,,,,,,,,,156,conf-156.mp3,
,12500.274999999,Retranscription,survey-html-form,385,2418948,0.0-385.0,2,,,,,,"{""rep"":""but the feel they can count on each other when the day got t""}",,,,,,,but the feel they can count on each other when the day got t
,,Audio,audio-keyboard-response,386,2423361,0.0-386.0,2,audio/mp3/conf-157.mp3,,,,,,,,,,157,conf-157.mp3,
,10000.614999997,Retranscription,survey-html-form,387,2433373,0.0-387.0,2,,,,,,"{""rep"":""those arguments didn't take a tool on their memories""}",,,,,,,those arguments didn't take a tool on their memories
,,Audio,audio-keyboard-response,388,2436545,0.0-388.0,2,audio/mp3/conf-158.mp3,,,,,,,,,,158,conf-158.mp3,
,7484.0000000256,Retranscription,survey-html-form,389,2444053,0.0-389.0,2,,,,,,"{""rep"":""so, this message""}",,,,,,,"so, this message"
,,Audio,audio-keyboard-response,390,2450203,0.0-390.0,2,audio/mp3/conf-159.mp3,,,,,,,,,,159,conf-159.mp3,
,14970.880000008,Retranscription,survey-html-form,391,2465208,0.0-391.0,2,,,,,,"{""rep"":""that good close relationship are good for our health and our being""}",,,,,,,that good close relationship are good for our health and our being
,,Audio,audio-keyboard-response,392,2468514,0.0-392.0,2,audio/mp3/conf-160.mp3,,,,,,,,,,160,conf-160.mp3,
,7539.0699999994,Retranscription,survey-html-form,393,2476085,0.0-393.0,2,,,,,,"{""rep"":""this is wisdom that are old as the hills""}",,,,,,,this is wisdom that are old as the hills
,,Audio,audio-keyboard-response,394,2480253,0.0-394.0,2,audio/mp3/conf-161.mp3,,,,,,,,,,161,conf-161.mp3,
,9969.4249999882,Retranscription,survey-html-form,395,2490262,0.0-395.0,2,,,,,,"{""rep"":""why is it so hard to get and so easy to ignore""}",,,,,,,why is it so hard to get and so easy to ignore
,,Audio,audio-keyboard-response,396,2495383,0.0-396.0,2,audio/mp3/conf-162.mp3,,,,,,,,,,162,conf-162.mp3,
,12485.274999985,Retranscription,survey-html-form,397,2507906,0.0-397.0,2,,,,,,"{""rep"":""well, we're human, what we really like is a quic ""}",,,,,,,"well, we're human, what we really like is a quic "
,,Audio,audio-keyboard-response,398,2513353,0.0-398.0,2,audio/mp3/conf-163.mp3,,,,,,,,,,163,conf-163.mp3,
,12486.095,Retranscription,survey-html-form,399,2525861,0.0-399.0,2,,,,,,"{""rep"":""something we can get to keep our lives in that way""}",,,,,,,something we can get to keep our lives in that way
,,Audio,audio-keyboard-response,400,2530123,0.0-400.0,2,audio/mp3/conf-164.mp3,,,,,,,,,,164,conf-164.mp3,
,9980.2900000066,Retranscription,survey-html-form,401,2540129,0.0-401.0,2,,,,,,"{""rep"":""relationship are messy and complicated""}",,,,,,,relationship are messy and complicated
,,Audio,audio-keyboard-response,402,2544872,0.0-402.0,2,audio/mp3/conf-165.mp3,,,,,,,,,,165,conf-165.mp3,
,9992.0749999871,Retranscription,survey-html-form,403,2554877,0.0-403.0,2,,,,,,"{""rep"":""the hard work attending families and friends""}",,,,,,,the hard work attending families and friends
,,Audio,audio-keyboard-response,404,2557933,0.0-404.0,2,audio/mp3/conf-166.mp3,,,,,,,,,,166,conf-166.mp3,
,7471.5850000209,Retranscription,survey-html-form,405,2565439,0.0-405.0,2,,,,,,"{""rep"":""it's not sexy or glamou""}",,,,,,,it's not sexy or glamou
,,Audio,audio-keyboard-response,406,2569124,0.0-406.0,2,audio/mp3/conf-167.mp3,,,,,,,,,,167,conf-167.mp3,
,7498.794999992,Retranscription,survey-html-form,407,2576634,0.0-407.0,2,,,,,,"{""rep"":""it's also life-long, it never ends.""}",,,,,,,"it's also life-long, it never ends."
,,Audio,audio-keyboard-response,408,2582375,0.0-408.0,2,audio/mp3/conf-168.mp3,,,,,,,,,,168,conf-168.mp3,
,12499.929999991,Retranscription,survey-html-form,409,2594886,0.0-409.0,2,,,,,,"{""rep"":""the people in our 75 study, who are now retirement""}",,,,,,,"the people in our 75 study, who are now retirement"
,,Audio,audio-keyboard-response,410,2599442,0.0-410.0,2,audio/mp3/conf-169.mp3,,,,,,,,,,169,conf-169.mp3,
,10002.149999985,Retranscription,survey-html-form,411,2609464,0.0-411.0,2,,,,,,"{""rep"":""who worked actively to replace t""}",,,,,,,who worked actively to replace t
,,Audio,audio-keyboard-response,412,2611846,0.0-412.0,2,audio/mp3/conf-170.mp3,,,,,,,,,,170,conf-170.mp3,
,4990.5999999903,Retranscription,survey-html-form,413,2616858,0.0-413.0,2,,,,,,"{""rep"":""with new playmates""}",,,,,,,with new playmates
,,Audio,audio-keyboard-response,414,2620752,0.0-414.0,2,audio/mp3/conf-171.mp3,,,,,,,,,,171,conf-171.mp3,
,7479.3650000063,Retranscription,survey-html-form,415,2628259,0.0-415.0,2,,,,,,"{""rep"":""just like the millenials in our recent survey""}",,,,,,,just like the millenials in our recent survey
,,Audio,audio-keyboard-response,416,2632622,0.0-416.0,2,audio/mp3/conf-172.mp3,,,,,,,,,,172,conf-172.mp3,
,9977.985000005,Retranscription,survey-html-form,417,2642635,0.0-417.0,2,,,,,,"{""rep"":""many of our men, when they were studying at as young ""}",,,,,,,"many of our men, when they were studying at as young "
,,Audio,audio-keyboard-response,418,2645112,0.0-418.0,2,audio/mp3/conf-173.mp3,,,,,,,,,,173,conf-173.mp3,
,4968.9300000025,Retranscription,survey-html-form,419,2650115,0.0-419.0,2,,,,,,"{""rep"":""really believed""}",,,,,,,really believed
,,Audio,audio-keyboard-response,420,2655443,0.0-420.0,2,audio/mp3/conf-174.mp3,,,,,,,,,,174,conf-174.mp3,
,12510.204999998,Retranscription,survey-html-form,421,2667958,0.0-421.0,2,,,,,,"{""rep"":""that fame and need, and goal achievements, was wha""}",,,,,,,"that fame and need, and goal achievements, was wha"
,,Audio,audio-keyboard-response,422,2670092,0.0-422.0,2,audio/mp3/conf-175.mp3,,,,,,,,,,175,conf-175.mp3,
,4987.2149999719,Retranscription,survey-html-form,423,2675103,0.0-423.0,2,,,,,,"{""rep"":""to have a good life""}",,,,,,,to have a good life
,,Audio,audio-keyboard-response,424,2680293,0.0-424.0,2,audio/mp3/conf-176.mp3,,,,,,,,,,176,conf-176.mp3,
,12489.635000005,Retranscription,survey-html-form,425,2692804,0.0-425.0,2,,,,,,"{""rep"":""but over and over, our 75 years study as shown""}",,,,,,,"but over and over, our 75 years study as shown"
,,Audio,audio-keyboard-response,426,2695682,0.0-426.0,2,audio/mp3/conf-177.mp3,,,,,,,,,,177,conf-177.mp3,
,4972.9100000113,Retranscription,survey-html-form,427,2700692,0.0-427.0,2,,,,,,"{""rep"":""that the people who fe""}",,,,,,,that the people who fe
,,Audio,audio-keyboard-response,428,2704862,0.0-428.0,2,audio/mp3/conf-178.mp3,,,,,,,,,,178,conf-178.mp3,
,9994.2399999998,Retranscription,survey-html-form,429,2714870,0.0-429.0,2,,,,,,"{""rep"":""were the people who lean into relationship""}",,,,,,,were the people who lean into relationship
,,Audio,audio-keyboard-response,430,2719385,0.0-430.0,2,audio/mp3/conf-179.mp3,,,,,,,,,,179,conf-179.mp3,
,9993.8749999856,Retranscription,survey-html-form,431,2729393,0.0-431.0,2,,,,,,"{""rep"":""with family, with friends with community""}",,,,,,,"with family, with friends with community"
,,Audio,audio-keyboard-response,432,2731463,0.0-432.0,2,audio/mp3/conf-180.mp3,,,,,,,,,,180,conf-180.mp3,
,4972.1000000136,Retranscription,survey-html-form,433,2736469,0.0-433.0,2,,,,,,"{""rep"":""so what about you?""}",,,,,,,so what about you?
,,Audio,audio-keyboard-response,434,2741393,0.0-434.0,2,audio/mp3/conf-181.mp3,,,,,,,,,,181,conf-181.mp3,
,9987.294999999,Retranscription,survey-html-form,435,2751401,0.0-435.0,2,,,,,,"{""rep"":""let's say you are 24 and 40 or 60""}",,,,,,,let's say you are 24 and 40 or 60
,,Audio,audio-keyboard-response,436,2755183,0.0-436.0,2,audio/mp3/conf-182.mp3,,,,,,,,,,182,conf-182.mp3,
,7483.804999996,Retranscription,survey-html-form,437,2762694,0.0-437.0,2,,,,,,"{""rep"":""what that leaning to relationship loo""}",,,,,,,what that leaning to relationship loo
,,Audio,audio-keyboard-response,438,2766818,0.0-438.0,2,audio/mp3/conf-183.mp3,,,,,,,,,,183,conf-183.mp3,
,9993.9949999973,Retranscription,survey-html-form,439,2776825,0.0-439.0,2,,,,,,"{""rep"":""possibilities are practically endless""}",,,,,,,possibilities are practically endless
,,Audio,audio-keyboard-response,440,2780135,0.0-440.0,2,audio/mp3/conf-184.mp3,,,,,,,,,,184,conf-184.mp3,
,7497.1699999878,Retranscription,survey-html-form,441,2787641,0.0-441.0,2,,,,,,"{""rep"":""it might be something as simole as""}",,,,,,,it might be something as simole as
,,Audio,audio-keyboard-response,442,2791522,0.0-442.0,2,audio/mp3/conf-185.mp3,,,,,,,,,,185,conf-185.mp3,
,7484.6699999762,Retranscription,survey-html-form,443,2799032,0.0-443.0,2,,,,,,"{""rep"":""replacing screen times with people times""}",,,,,,,replacing screen times with people times
,,Audio,audio-keyboard-response,444,2803946,0.0-444.0,2,audio/mp3/conf-186.mp3,,,,,,,,,,186,conf-186.mp3,
,9993.9649999724,Retranscription,survey-html-form,445,2813953,0.0-445.0,2,,,,,,"{""rep"":""or laddering up the stairs of relationship by doing something ne""}",,,,,,,or laddering up the stairs of relationship by doing something ne
,,Audio,audio-keyboard-response,446,2816973,0.0-446.0,2,audio/mp3/conf-187.mp3,,,,,,,,,,187,conf-187.mp3,
,7487.770000007,Retranscription,survey-html-form,447,2824478,0.0-447.0,2,,,,,,"{""rep"":""long walks or date nights""}",,,,,,,long walks or date nights
,,Audio,audio-keyboard-response,448,2829672,0.0-448.0,2,audio/mp3/conf-188.mp3,,,,,,,,,,188,conf-188.mp3,
,12472.004999989,Retranscription,survey-html-form,449,2842181,0.0-449.0,2,,,,,,"{""rep"":""or reaching out to that family members who you haven't talk i""}",,,,,,,or reaching out to that family members who you haven't talk i
,,Audio,audio-keyboard-response,450,2846082,0.0-450.0,2,audio/mp3/conf-189.mp3,,,,,,,,,,189,conf-189.mp3,
,7499.0950000063,Retranscription,survey-html-form,451,2853585,0.0-451.0,2,,,,,,"{""rep"":""because of that 2 common family feus""}",,,,,,,because of that 2 common family feus
,,Audio,audio-keyboard-response,452,2859095,0.0-452.0,2,audio/mp3/conf-190.mp3,,,,,,,,,,190,conf-190.mp3,
,12494.674999995,Retranscription,survey-html-form,453,2871603,0.0-453.0,2,,,,,,"{""rep"":""take a terrible toll on family member""}",,,,,,,take a terrible toll on family member
,,Audio,audio-keyboard-response,454,2876363,0.0-454.0,2,audio/mp3/conf-191.mp3,,,,,,,,,,191,conf-191.mp3,
,9970.8450000035,Retranscription,survey-html-form,455,2886367,0.0-455.0,2,,,,,,"{""rep"":""I'd like to close with a quote from Mark Twaines""}",,,,,,,I'd like to close with a quote from Mark Twaines
,,Audio,audio-keyboard-response,456,2889273,0.0-456.0,2,audio/mp3/conf-192.mp3,,,,,,,,,,192,conf-192.mp3,
,4967.470000003,Retranscription,survey-html-form,457,2894280,0.0-457.0,2,,,,,,"{""rep"":""More than a century ago""}",,,,,,,More than a century ago
,,Audio,audio-keyboard-response,458,2899062,0.0-458.0,2,audio/mp3/conf-193.mp3,,,,,,,,,,193,conf-193.mp3,
,9972.2149999873,Retranscription,survey-html-form,459,2909067,0.0-459.0,2,,,,,,"{""rep"":""he was looking back on his life and wrote this""}",,,,,,,he was looking back on his life and wrote this
,,Audio,audio-keyboard-response,460,2913683,0.0-460.0,2,audio/mp3/conf-194.mp3,,,,,,,,,,194,conf-194.mp3,
,9970.284999989,Retranscription,survey-html-form,461,2923689,0.0-461.0,2,,,,,,"{""rep"":""\""There isn't time so grief as life""}",,,,,,,"""There isn't time so grief as life"
,,Audio,audio-keyboard-response,462,2926082,0.0-462.0,2,audio/mp3/conf-195.mp3,,,,,,,,,,195,conf-195.mp3,
,4970.3399999999,Retranscription,survey-html-form,463,2931087,0.0-463.0,2,,,,,,"{""rep"":""for pickerings""}",,,,,,,for pickerings
,,Audio,audio-keyboard-response,464,2935631,0.0-464.0,2,audio/mp3/conf-196.mp3,,,,,,,,,,196,conf-196.mp3,
,9986.4149999926,Retranscription,survey-html-form,465,2945639,0.0-465.0,2,,,,,,"{""rep"":""apologies, hard calling,""}",,,,,,,"apologies, hard calling,"
,,Audio,audio-keyboard-response,466,2951391,0.0-466.0,2,audio/mp3/conf-197.mp3,,,,,,,,,,197,conf-197.mp3,
,12482.325000019,Retranscription,survey-html-form,467,2963896,0.0-467.0,2,,,,,,"{""rep"":""There is only time for loving, and ""}",,,,,,,"There is only time for loving, and "
,,Audio,audio-keyboard-response,468,2971251,0.0-468.0,2,audio/mp3/conf-198.mp3,,,,,,,,,,198,conf-198.mp3,
,17495.23999999,Retranscription,survey-html-form,469,2988762,0.0-469.0,2,,,,,,"{""rep"":""for that, a good life is built with good relationship\""""}",,,,,,,"for that, a good life is built with good relationship"""
,,Pause,html-keyboard-response,470,2990776,0.0-470.0,2,<h1>Reading Span</h1>,,,,,,,,,,,,
,11159.09999999,sentence-post,html-button-response,471,3002444,0.0-471.0,2,<p style='font-size: 1.3em'>Wendy went to check her mail but all she received were cats.</p>,,0,0,1,,,,,,,,
,,letter-post,html-keyboard-response,472,3003454,0.0-472.0,2,<p class='mono' style='font-size: 2.5em' >H</p>,,,,,,,,,,,,
,5661.9900000226,sentence-post,html-button-response,473,3009429,0.0-473.0,2,"<p style='font-size: 1.3em'>Realizing that she was late, Julia rushed to pick up her child from speaker.</p>",,0,0,1,,,,,,,,
,,letter-post,html-keyboard-response,474,3010491,0.0-474.0,2,<p class='mono' style='font-size: 2.5em' >P</p>,,,,,,,,,,,,
,3236.6699999841,sentence-post,html-button-response,475,3014043,0.0-475.0,2,<p style='font-size: 1.3em'>Paul likes to cry long distances in the park near his house.</p>,,1,0,0,,,,,,,,
,,letter-post,html-keyboard-response,476,3015055,0.0-476.0,2,<p class='mono' style='font-size: 2.5em' >Y</p>,,,,,,,,,,,,
,2856.4250000054,sentence-post,html-button-response,477,3018217,0.0-477.0,2,<p style='font-size: 1.3em'>The sick boy had to stay home from school because he had a phone.</p>,,0,0,1,,,,,,,,
,,letter-post,html-keyboard-response,478,3019229,0.0-478.0,2,<p class='mono' style='font-size: 2.5em' >Q</p>,,,,,,,,,,,,
,4114.1500000083,sentence-post,html-button-response,479,3023665,0.0-479.0,2,<p style='font-size: 1.3em'>The judge gave the boy community sweat for stealing the candy bar.</p>,,1,0,0,,,,,,,,
,,letter-post,html-keyboard-response,480,3024681,0.0-480.0,2,<p class='mono' style='font-size: 2.5em' >S</p>,,,,,,,,,,,,
,9724.4050000156,sentence-post,html-button-response,481,3034721,0.0-481.0,2,<p style='font-size: 1.3em'>Women fall in jump with their infants at first sight or even sooner.</p>,,0,0,1,,,,,,,,
,,letter-post,html-keyboard-response,482,3035733,0.0-482.0,2,<p class='mono' style='font-size: 2.5em' >R</p>,,,,,,,,,,,,
,5112.0850000004,recall-post,survey-html-form,483,3041156,0.0-483.0,2,,,,,1,"{""response"":""HPYQSR""}",HPYQSR,1,6,HPYQSR,,,
,6011.4999999935,sentence-post,html-button-response,484,3047181,0.0-484.0,2,<p style='font-size: 1.3em'>Jason's family likes to visit him in Atlanta during the cherry every year.</p>,,1,0,0,,,,,,,,
,,letter-post,html-keyboard-response,485,3048188,0.0-485.0,2,<p class='mono' style='font-size: 2.5em' >R</p>,,,,,,,,,,,,
,3082.5499999914,sentence-post,html-button-response,486,3051582,0.0-486.0,2,<p style='font-size: 1.3em'>The doctor told my aunt that she would feel better after getting happy.</p>,,1,0,0,,,,,,,,
,,letter-post,html-keyboard-response,487,3052591,0.0-487.0,2,<p class='mono' style='font-size: 2.5em' >J</p>,,,,,,,,,,,,
,12586.869999999,sentence-post,html-button-response,488,3065486,0.0-488.0,2,<p style='font-size: 1.3em'>The printer sprinted when he tried to print out his report last night.</p>,,0,0,1,,,,,,,,
,,letter-post,html-keyboard-response,489,3066492,0.0-489.0,2,<p class='mono' style='font-size: 2.5em' >Y</p>,,,,,,,,,,,,
,7039.7499999963,sentence-post,html-button-response,490,3073838,0.0-490.0,2,<p style='font-size: 1.3em'>Nick's hockey team won their final game this past weekend at the shoes.</p>,,0,0,1,,,,,,,,
,,letter-post,html-keyboard-response,491,3074842,0.0-491.0,2,<p class='mono' style='font-size: 2.5em' >S</p>,,,,,,,,,,,,
,2965.4000000153,sentence-post,html-button-response,492,3078113,0.0-492.0,2,<p style='font-size: 1.3em'>My mother and father have always wanted to live near the cup.</p>,,1,0,0,,,,,,,,
,,letter-post,html-keyboard-response,493,3079126,0.0-493.0,2,<p class='mono' style='font-size: 2.5em' >K</p>,,,,,,,,,,,,
,6257.4650000022,recall-post,survey-html-form,494,3085690,0.0-494.0,2,,,,,0,"{""response"":""YSRP""}",RJYSK,2,5,YSRP,,,
,2983.7150000096,sentence-post,html-button-response,495,3088688,0.0-495.0,2,"<p style='font-size: 1.3em'>The prom was only three days away, but neither girl had a dress yet.</p>",,1,1,1,,,,,,,,
,,letter-post,html-keyboard-response,496,3089709,0.0-496.0,2,<p class='mono' style='font-size: 2.5em' >T</p>,,,,,,,,,,,,
,2567.5000000047,sentence-post,html-button-response,497,3092600,0.0-497.0,2,<p style='font-size: 1.3em'>The children entered in a talent contest to win a trip to Disney World.</p>,,1,1,1,,,,,,,,
,,letter-post,html-keyboard-response,498,3093606,0.0-498.0,2,<p class='mono' style='font-size: 2.5em' >H</p>,,,,,,,,,,,,
,3793.2199999923,sentence-post,html-button-response,499,3097718,0.0-499.0,2,<p style='font-size: 1.3em'>They were worried that all of their luggage would not fit in the car.</p>,,1,1,1,,,,,,,,
,,letter-post,html-keyboard-response,500,3098725,0.0-500.0,2,<p class='mono' style='font-size: 2.5em' >J</p>,,,,,,,,,,,,
,3800.45000001,sentence-post,html-button-response,501,3102830,0.0-501.0,2,<p style='font-size: 1.3em'>The seventh graders had to build a volcano for their science class.</p>,,1,1,1,,,,,,,,
,,letter-post,html-keyboard-response,502,3103839,0.0-502.0,2,<p class='mono' style='font-size: 2.5em' >F</p>,,,,,,,,,,,,
,5451.0900000171,recall-post,survey-html-form,503,3109601,0.0-503.0,2,,,,,1,"{""response"":""THJF""}",THJF,3,4,THJF,,,
,3379.3000000007,sentence-post,html-button-response,504,3112986,0.0-504.0,2,<p style='font-size: 1.3em'>The college students went to New York in March and it snowed.</p>,,1,1,1,,,,,,,,
,,letter-post,html-keyboard-response,505,3113990,0.0-505.0,2,<p class='mono' style='font-size: 2.5em' >Y</p>,,,,,,,,,,,,
,2962.760000024,sentence-post,html-button-response,506,3117259,0.0-506.0,2,<p style='font-size: 1.3em'>She had to cancel the appointment because she caught the flu yesterday.</p>,,1,1,1,,,,,,,,
,,letter-post,html-keyboard-response,507,3118270,0.0-507.0,2,<p class='mono' style='font-size: 2.5em' >S</p>,,,,,,,,,,,,
,4364.9799999837,sentence-post,html-button-response,508,3122941,0.0-508.0,2,<p style='font-size: 1.3em'>Doug helped his family dig in their backyard for their new swimming pool.</p>,,1,1,1,,,,,,,,
,,letter-post,html-keyboard-response,509,3123947,0.0-509.0,2,<p class='mono' style='font-size: 2.5em' >Q</p>,,,,,,,,,,,,
,3308.1649999949,sentence-post,html-button-response,510,3127562,0.0-510.0,2,<p style='font-size: 1.3em'>The dogs were very excited about going for a walk in the park.</p>,,1,1,1,,,,,,,,
,,letter-post,html-keyboard-response,511,3128569,0.0-511.0,2,<p class='mono' style='font-size: 2.5em' >F</p>,,,,,,,,,,,,
,3774.62500002,sentence-post,html-button-response,512,3132650,0.0-512.0,2,"<p style='font-size: 1.3em'>In the spring, the large birdfeeder outside my window attracts many birds.</p>",,1,1,1,,,,,,,,
,,letter-post,html-keyboard-response,513,3133656,0.0-513.0,2,<p class='mono' style='font-size: 2.5em' >T</p>,,,,,,,,,,,,
,3894.6399999838,sentence-post,html-button-response,514,3137865,0.0-514.0,2,"<p style='font-size: 1.3em'>Before Katie left for the city, she took a self-defense class at the gym.</p>",,1,1,1,,,,,,,,
,,letter-post,html-keyboard-response,515,3138884,0.0-515.0,2,<p class='mono' style='font-size: 2.5em' >L</p>,,,,,,,,,,,,
,6016.0100000212,recall-post,survey-html-form,516,3145206,0.0-516.0,2,,,,,0,"{""response"":""TQLTF""}",YSQFTL,4,6,TQLTF,,,
,2841.5899999966,sentence-post,html-button-response,517,3148056,0.0-517.0,2,<p style='font-size: 1.3em'>Mary was excited about her new furniture that she had bought on sale.</p>,,1,1,1,,,,,,,,
,,letter-post,html-keyboard-response,518,3149068,0.0-518.0,2,<p class='mono' style='font-size: 2.5em' >T</p>,,,,,,,,,,,,
,3044.8299999991,sentence-post,html-button-response,519,3152419,0.0-519.0,2,<p style='font-size: 1.3em'>The class did not think the professor's lecture on history was very interesting.</p>,,1,1,1,,,,,,,,
,,letter-post,html-keyboard-response,520,3153427,0.0-520.0,2,<p class='mono' style='font-size: 2.5em' >N</p>,,,,,,,,,,,,
,3186.9849999784,sentence-post,html-button-response,521,3156923,0.0-521.0,2,<p style='font-size: 1.3em'>Jane forgot to bring her umbrella and got wet in the rain.</p>,,1,1,1,,,,,,,,
,,letter-post,html-keyboard-response,522,3157934,0.0-522.0,2,<p class='mono' style='font-size: 2.5em' >F</p>,,,,,,,,,,,,
,4366.3299999898,sentence-post,html-button-response,523,3162606,0.0-523.0,2,<p style='font-size: 1.3em'>Dan walked around the streets posting signs and looking for his lost puppy.</p>,,1,1,1,,,,,,,,
,,letter-post,html-keyboard-response,524,3163613,0.0-524.0,2,<p class='mono' style='font-size: 2.5em' >R</p>,,,,,,,,,,,,
,4081.3750000088,recall-post,survey-html-form,525,3168001,0.0-525.0,2,,,,,0,"{""response"":""TNFL""}",TNFR,5,4,TNFL,,,
,3552.8549999874,sentence-post,html-button-response,526,3171569,0.0-526.0,2,<p style='font-size: 1.3em'>The couple decided that they wanted to have a picnic in the park.</p>,,1,1,1,,,,,,,,
,,letter-post,html-keyboard-response,527,3172575,0.0-527.0,2,<p class='mono' style='font-size: 2.5em' >L</p>,,,,,,,,,,,,
,2545.9949999927,sentence-post,html-button-response,528,3175450,0.0-528.0,2,<p style='font-size: 1.3em'>The girls were very excited about moving into their new house next week.</p>,,1,1,1,,,,,,,,
,,letter-post,html-keyboard-response,529,3176455,0.0-529.0,2,<p class='mono' style='font-size: 2.5em' >P</p>,,,,,,,,,,,,
,6670.5000000075,sentence-post,html-button-response,530,3183431,0.0-530.0,2,<p style='font-size: 1.3em'>Joseph told his mother that he was probably going to fail sixth grade math.</p>,,1,1,1,,,,,,,,
,,letter-post,html-keyboard-response,531,3184437,0.0-531.0,2,<p class='mono' style='font-size: 2.5em' >R</p>,,,,,,,,,,,,
,2885.4349999749,sentence-post,html-button-response,532,3187639,0.0-532.0,2,<p style='font-size: 1.3em'>We like to eat eggs and bacon for breakfast in the morning.</p>,,1,1,1,,,,,,,,
,,letter-post,html-keyboard-response,533,3188650,0.0-533.0,2,<p class='mono' style='font-size: 2.5em' >F</p>,,,,,,,,,,,,
,2972.6749999975,sentence-post,html-button-response,534,3191935,0.0-534.0,2,<p style='font-size: 1.3em'>Harry plans to play a lot of golf when he retires from his job.</p>,,1,1,1,,,,,,,,
,,letter-post,html-keyboard-response,535,3192941,0.0-535.0,2,<p class='mono' style='font-size: 2.5em' >H</p>,,,,,,,,,,,,
,5326.7349999808,recall-post,survey-html-form,536,3198579,0.0-536.0,2,,,,,0,"{""response"":""TPFL""}",LPRFH,6,5,TPFL,,,
,,,fullscreen,537,3199611,0.0-537.0,2,,,,,,,,,,,,,
,,,fullscreen,0,3341,0.0-0.0,6,,,,,,,,,,,,,
"[{""page_index"":0,""viewing_time"":3740.555000011227},{""page_index"":1,""viewing_time"":55088.019999995595},{""page_index"":2,""viewing_time"":13383.904999995138}]",72213.225,instruction,instructions,1,75556,0.0-1.0,6,,,,,,,,,,,,,
"[{""page_index"":0,""viewing_time"":29878.354999993462},{""page_index"":1,""viewing_time"":16472.125000000233}]",46350.684999998,instruction,instructions,2,121908,0.0-2.0,6,,,,,,,,,,,,,
,,Pause,html-keyboard-response,3,122913,0.0-3.0,6,"",,,,,,,,,,,,
,4807.6300000102,sentence-pre,html-button-response,4,127724,0.0-4.0,6,"<p style='font-size: 1.3em'>When I get up in the morning, the first thing I do is feed my dog.</p>",,1,1,1,,,,,,,,
,,letter-pre,html-keyboard-response,5,128727,0.0-5.0,6,<p class='mono' style='font-size: 2.5em' >T</p>,,,,,,,,,,,,
,6932.839999994,sentence-pre,html-button-response,6,135964,0.0-6.0,6,"<p style='font-size: 1.3em'>After yelling at the game, I knew I would have a tall voice.</p>",,1,0,0,,,,,,,,
,,letter-pre,html-keyboard-response,7,136966,0.0-7.0,6,<p class='mono' style='font-size: 2.5em' >Y</p>,,,,,,,,,,,,
,4343.0649999937,sentence-pre,html-button-response,8,141611,0.0-8.0,6,<p style='font-size: 1.3em'>Mary was asked to stop at the new mall to pick up several items.</p>,,1,1,1,,,,,,,,
,,letter-pre,html-keyboard-response,9,142614,0.0-9.0,6,<p class='mono' style='font-size: 2.5em' >J</p>,,,,,,,,,,,,
,5076.9650000002,sentence-pre,html-button-response,10,147995,0.0-10.0,6,"<p style='font-size: 1.3em'>When it is cold, my mother always makes me wear a cap on my head.</p>",,1,1,1,,,,,,,,
,,letter-pre,html-keyboard-response,11,148998,0.0-11.0,6,<p class='mono' style='font-size: 2.5em' >K</p>,,,,,,,,,,,,
,4709.3349999923,sentence-pre,html-button-response,12,154011,0.0-12.0,6,<p style='font-size: 1.3em'>All parents hope their list will grow up to be intelligent.</p>,,0,0,1,,,,,,,,
,,letter-pre,html-keyboard-response,13,155013,0.0-13.0,6,<p class='mono' style='font-size: 2.5em' >N</p>,,,,,,,,,,,,
,6555.7249999983,recall-pre,survey-html-form,14,161876,0.0-14.0,6,,,,,1,"{""response"":""TYJKN""}",TYJKN,1,5,TYJKN,,,
,7973.9300000074,sentence-pre,html-button-response,15,169852,0.0-15.0,6,"<p style='font-size: 1.3em'>When John and Amy moved to Canada, their wish had a huge garage sale.</p>",,0,0,1,,,,,,,,
,,letter-pre,html-keyboard-response,16,170854,0.0-16.0,6,<p class='mono' style='font-size: 2.5em' >R</p>,,,,,,,,,,,,
,6151.2800000055,sentence-pre,html-button-response,17,177307,0.0-17.0,6,"<p style='font-size: 1.3em'>In the fall, my gift and I love to work together in the yard.</p>",,0,0,1,,,,,,,,
,,letter-pre,html-keyboard-response,18,178310,0.0-18.0,6,<p class='mono' style='font-size: 2.5em' >J</p>,,,,,,,,,,,,
,4126.4799999917,sentence-pre,html-button-response,19,182740,0.0-19.0,6,"<p style='font-size: 1.3em'>At church yesterday morning, Jim's daughter made a terrible plum.</p>",,0,0,1,,,,,,,,
,,letter-pre,html-keyboard-response,20,183742,0.0-20.0,6,<p class='mono' style='font-size: 2.5em' >P</p>,,,,,,,,,,,,
,5573.5750000022,sentence-pre,html-button-response,21,189619,0.0-21.0,6,"<p style='font-size: 1.3em'>Unaware of the hunter, the deer wandered into his shotgun range. </p>",,1,1,1,,,,,,,,
,,letter-pre,html-keyboard-response,22,190622,0.0-22.0,6,<p class='mono' style='font-size: 2.5em' >S</p>,,,,,,,,,,,,
,6550.7250000082,sentence-pre,html-button-response,23,197476,0.0-23.0,6,"<p style='font-size: 1.3em'>Since it was the last game, it was hard to cope with the loss.</p>",,1,1,1,,,,,,,,
,,letter-pre,html-keyboard-response,24,198478,0.0-24.0,6,<p class='mono' style='font-size: 2.5em' >T</p>,,,,,,,,,,,,
,5895.1899999956,sentence-pre,html-button-response,25,204675,0.0-25.0,6,"<p style='font-size: 1.3em'>Because she gets to knife early, Amy usually gets a good parking spot.</p>",,0,0,1,,,,,,,,
,,letter-pre,html-keyboard-response,26,205679,0.0-26.0,6,<p class='mono' style='font-size: 2.5em' >F</p>,,,,,,,,,,,,
,9109.1050000105,recall-pre,survey-html-form,27,215092,0.0-27.0,6,,,,,0,"{""response"":""RJPNTF""}",RJPSTF,2,6,RJPNTF,,,
,6934.0900000097,sentence-pre,html-button-response,28,222027,0.0-28.0,6,<p style='font-size: 1.3em'>The only furniture Steve had in his first bowl was his waterbed.</p>,,0,0,1,,,,,,,,
,,letter-pre,html-keyboard-response,29,223030,0.0-29.0,6,<p class='mono' style='font-size: 2.5em' >H</p>,,,,,,,,,,,,
,5062.2000000003,sentence-pre,html-button-response,30,228396,0.0-30.0,6,"<p style='font-size: 1.3em'>Last year, Mike was given detention for running in the hall.</p>",,1,1,1,,,,,,,,
,,letter-pre,html-keyboard-response,31,229398,0.0-31.0,6,<p class='mono' style='font-size: 2.5em' >J</p>,,,,,,,,,,,,
,6534.7150000016,sentence-pre,html-button-response,32,236236,0.0-32.0,6,<p style='font-size: 1.3em'>The huge clouds covered the morning slide and the rain began to fall.</p>,,0,0,1,,,,,,,,
,,letter-pre,html-keyboard-response,33,237239,0.0-33.0,6,<p class='mono' style='font-size: 2.5em' >T</p>,,,,,,,,,,,,
,6245.2599999961,sentence-pre,html-button-response,34,243787,0.0-34.0,6,<p style='font-size: 1.3em'>After one date I knew that Linda's sister simply was not my type.</p>,,1,1,1,,,,,,,,
,,letter-pre,html-keyboard-response,35,244790,0.0-35.0,6,<p class='mono' style='font-size: 2.5em' >R</p>,,,,,,,,,,,,
,4759.8949999956,recall-pre,survey-html-form,36,249852,0.0-36.0,6,,,,,0,"{""response"":""RJTR""}",HJTR,3,4,RJTR,,,
,5973.840000006,sentence-pre,html-button-response,37,255827,0.0-37.0,6,<p style='font-size: 1.3em'>Jason broke his arm when he fell from the tree onto the ground. </p>,,1,1,1,,,,,,,,
,,letter-pre,html-keyboard-response,38,256830,0.0-38.0,6,<p class='mono' style='font-size: 2.5em' >T</p>,,,,,,,,,,,,
,4485.440000004,sentence-pre,html-button-response,39,261619,0.0-39.0,6,<p style='font-size: 1.3em'>Most people agree that Monday is the worst stick of the week.</p>,,0,0,1,,,,,,,,
,,letter-pre,html-keyboard-response,40,262622,0.0-40.0,6,<p class='mono' style='font-size: 2.5em' >F</p>,,,,,,,,,,,,
,7901.7250000034,sentence-pre,html-button-response,41,270827,0.0-41.0,6,"<p style='font-size: 1.3em'>On warm sunny afternoons, I like to walk in the park.</p>",,1,1,1,,,,,,,,
,,letter-pre,html-keyboard-response,42,271829,0.0-42.0,6,<p class='mono' style='font-size: 2.5em' >Q</p>,,,,,,,,,,,,
,5304.3000000034,sentence-pre,html-button-response,43,277435,0.0-43.0,6,<p style='font-size: 1.3em'>With intense determination he overcame all obstacles and won the race.</p>,,1,1,1,,,,,,,,
,,letter-pre,html-keyboard-response,44,278438,0.0-44.0,6,<p class='mono' style='font-size: 2.5em' >H</p>,,,,,,,,,,,,
,7614.6799999988,recall-pre,survey-html-form,45,286356,0.0-45.0,6,,,,,1,"{""response"":""TFQH""}",TFQH,4,4,TFQH,,,
,5006.1399999977,sentence-pre,html-button-response,46,291363,0.0-46.0,6,<p style='font-size: 1.3em'>A person should never be discriminated against based on his race.</p>,,1,1,1,,,,,,,,
,,letter-pre,html-keyboard-response,47,292367,0.0-47.0,6,<p class='mono' style='font-size: 2.5em' >N</p>,,,,,,,,,,,,
,4893.8849999977,sentence-pre,html-button-response,48,297563,0.0-48.0,6,<p style='font-size: 1.3em'>My mother has always told me that it is not polite to shine.</p>,,0,0,1,,,,,,,,
,,letter-pre,html-keyboard-response,49,298566,0.0-49.0,6,<p class='mono' style='font-size: 2.5em' >H</p>,,,,,,,,,,,,
,12543.475000013,sentence-pre,html-button-response,50,311412,0.0-50.0,6,<p style='font-size: 1.3em'>The lemonade players decided to play two out of three sets.</p>,,0,0,1,,,,,,,,
,,letter-pre,html-keyboard-response,51,312415,0.0-51.0,6,<p class='mono' style='font-size: 2.5em' >K</p>,,,,,,,,,,,,
,3772.8999999963,sentence-pre,html-button-response,52,316492,0.0-52.0,6,<p style='font-size: 1.3em'>Raising children requires a lot of dust and the ability to be firm.</p>,,0,0,1,,,,,,,,
,,letter-pre,html-keyboard-response,53,317495,0.0-53.0,6,<p class='mono' style='font-size: 2.5em' >Y</p>,,,,,,,,,,,,
,4391.3200000097,sentence-pre,html-button-response,54,322188,0.0-54.0,6,<p style='font-size: 1.3em'>The gathering crowd turned to look when they heard the gun shot.</p>,,1,1,1,,,,,,,,
,,letter-pre,html-keyboard-response,55,323191,0.0-55.0,6,<p class='mono' style='font-size: 2.5em' >T</p>,,,,,,,,,,,,
,7686.4649999916,recall-pre,survey-html-form,56,331180,0.0-56.0,6,,,,,0,"{""response"":""PRYH""}",NHKYT,5,5,PRYH,,,
,7469.9250000122,sentence-pre,html-button-response,57,338652,0.0-57.0,6,<p style='font-size: 1.3em'>As soon as I get done taking this envy I am going to go home.</p>,,1,0,0,,,,,,,,
,,letter-pre,html-keyboard-response,58,339654,0.0-58.0,6,<p class='mono' style='font-size: 2.5em' >N</p>,,,,,,,,,,,,
,4806.030000007,sentence-pre,html-button-response,59,344764,0.0-59.0,6,<p style='font-size: 1.3em'>Sue opened her purse and found she did not have any money.</p>,,1,1,1,,,,,,,,
,,letter-pre,html-keyboard-response,60,345767,0.0-60.0,6,<p class='mono' style='font-size: 2.5em' >P</p>,,,,,,,,,,,,
,8087.6649999991,sentence-pre,html-button-response,61,354156,0.0-61.0,6,"<p style='font-size: 1.3em'>Jill wanted a garden in her backyard, but the soil was mostly clay.</p>",,1,1,1,,,,,,,,
,,letter-pre,html-keyboard-response,62,355159,0.0-62.0,6,<p class='mono' style='font-size: 2.5em' >H</p>,,,,,,,,,,,,
,6621.7299999989,sentence-pre,html-button-response,63,362084,0.0-63.0,6,<p style='font-size: 1.3em'>Stacey stopped dating the light when she found out he had a wife.</p>,,0,0,1,,,,,,,,
,,letter-pre,html-keyboard-response,64,363087,0.0-64.0,6,<p class='mono' style='font-size: 2.5em' >J</p>,,,,,,,,,,,,
,4413.274999999,sentence-pre,html-button-response,65,367803,0.0-65.0,6,<p style='font-size: 1.3em'>I told the class that they would get a surprise if they were orange.</p>,,0,0,1,,,,,,,,
,,letter-pre,html-keyboard-response,66,368806,0.0-66.0,6,<p class='mono' style='font-size: 2.5em' >R</p>,,,,,,,,,,,,
,7679.6349999931,sentence-pre,html-button-response,67,376787,0.0-67.0,6,"<p style='font-size: 1.3em'>Jim was so tired of studying, he could not read another page.</p>",,1,1,1,,,,,,,,
,,letter-pre,html-keyboard-response,68,377790,0.0-68.0,6,<p class='mono' style='font-size: 2.5em' >Y</p>,,,,,,,,,,,,
,9934.7050000069,recall-pre,survey-html-form,69,388028,0.0-69.0,6,,,,,0,"{""response"":""NJPHJRY""}",NPHJRY,6,6,NJPHJRY,,,
"[{""page_index"":0,""viewing_time"":28022.36499999708},{""page_index"":1,""viewing_time"":13840.094999992289},{""page_index"":2,""viewing_time"":3743.965000001481},{""page_index"":3,""viewing_time"":1576.4950000011595}]",47183.104999989,instruction,instructions,70,435213,0.0-70.0,6,,,,,,,,,,,,,
,,Pause,html-keyboard-response,71,436215,0.0-71.0,6,"",,,,,,,,,,,,
,,Beep Beep Beep,audio-keyboard-response,72,439473,0.0-72.0,6,../assets/beep_beep_beep.mp3,,,,,,,,,,,,
,,Pause,html-keyboard-response,73,440475,0.0-73.0,6,"",,,,,,,,,,,,
,,Audio,audio-keyboard-response,74,445532,0.0-74.0,6,audio/mp3/conf-001.mp3,,,,,,,,,,1,conf-001.mp3,
,12500.515000007,Retranscription,survey-html-form,75,458034,0.0-75.0,6,,,,,,"{""rep"":""what keeps us healthy and happy when ""}",,,,,,,what keeps us healthy and happy when 
,,Audio,audio-keyboard-response,76,463192,0.0-76.0,6,audio/mp3/conf-002.mp3,,,,,,,,,,2,conf-002.mp3,
,12500.739999989,Retranscription,survey-html-form,77,475696,0.0-77.0,6,,,,,,"{""rep"":""if you're gonna invest now in your better h""}",,,,,,,if you're gonna invest now in your better h
,,Audio,audio-keyboard-response,78,479552,0.0-78.0,6,audio/mp3/conf-003.mp3,,,,,,,,,,3,conf-003.mp3,
,7502.0550000045,Retranscription,survey-html-form,79,487057,0.0-79.0,6,,,,,,"{""rep"":""where would you put ""}",,,,,,,where would you put 
,,Audio,audio-keyboard-response,80,491153,0.0-80.0,6,audio/mp3/conf-004.mp3,,,,,,,,,,4,conf-004.mp3,
,9999.2050000001,Retranscription,survey-html-form,81,501157,0.0-81.0,6,,,,,,"{""rep"":""there was a recent survey on millanils\n""}",,,,,,,"there was a recent survey on millanils
"
,,Audio,audio-keyboard-response,82,505252,0.0-82.0,6,audio/mp3/conf-005.mp3,,,,,,,,,,5,conf-005.mp3,
,10000.449999992,Retranscription,survey-html-form,83,515254,0.0-83.0,6,,,,,,"{""rep"":""what the mots important life goes where""}",,,,,,,what the mots important life goes where
,,Audio,audio-keyboard-response,84,520153,0.0-84.0,6,audio/mp3/conf-006.mp3,,,,,,,,,,6,conf-006.mp3,
,10000.654999996,Retranscription,survey-html-form,85,530160,0.0-85.0,6,,,,,,"{""rep"":""and 80% said the major goal ""}",,,,,,,and 80% said the major goal 
,,Audio,audio-keyboard-response,86,532413,0.0-86.0,6,audio/mp3/conf-007.mp3,,,,,,,,,,7,conf-007.mp3,
,4999.1699999955,Retranscription,survey-html-form,87,537416,0.0-87.0,6,,,,,,"{""rep"":""was to get rich""}",,,,,,,was to get rich
,,Audio,audio-keyboard-response,88,542392,0.0-88.0,6,audio/mp3/conf-008.mp3,,,,,,,,,,8,conf-008.mp3,
,10001.870000007,Retranscription,survey-html-form,89,552396,0.0-89.0,6,,,,,,"{""rep"":""and another 50 % of these same yopug ""}",,,,,,,and another 50 % of these same yopug 
,,Audio,audio-keyboard-response,90,558771,0.0-90.0,6,audio/mp3/conf-009.mp3,,,,,,,,,,9,conf-009.mp3,
,15001.279999997,Retranscription,survey-html-form,91,573775,0.0-91.0,6,,,,,,"{""rep"":""said than another major goal was to become famous""}",,,,,,,said than another major goal was to become famous
,,Audio,audio-keyboard-response,92,580073,0.0-92.0,6,audio/mp3/conf-010.mp3,,,,,,,,,,10,conf-010.mp3,
,14999.770000009,Retranscription,survey-html-form,93,595078,0.0-93.0,6,,,,,,"{""rep"":""and constntly told to lean on work to push harder""}",,,,,,,and constntly told to lean on work to push harder
,,Audio,audio-keyboard-response,94,597723,0.0-94.0,6,audio/mp3/conf-011.mp3,,,,,,,,,,11,conf-011.mp3,
,5000.675000003,Retranscription,survey-html-form,95,602728,0.0-95.0,6,,,,,,"{""rep"":""and achieve more""}",,,,,,,and achieve more
,,Audio,audio-keyboard-response,96,607153,0.0-96.0,6,audio/mp3/conf-012.mp3,,,,,,,,,,12,conf-012.mp3,
,9999.0800000087,Retranscription,survey-html-form,97,617156,0.0-97.0,6,,,,,,"{""rep"":""were given the impression that ""}",,,,,,,were given the impression that 
,,Audio,audio-keyboard-response,98,619942,0.0-98.0,6,audio/mp3/conf-013.mp3,,,,,,,,,,13,conf-013.mp3,
,4999.9400000088,Retranscription,survey-html-form,99,624947,0.0-99.0,6,,,,,,"{""rep"":""in order ""}",,,,,,,in order 
,,Audio,audio-keyboard-response,100,628183,0.0-100.0,6,audio/mp3/conf-014.mp3,,,,,,,,,,14,conf-014.mp3,
,7499.2050000001,Retranscription,survey-html-form,101,635687,0.0-101.0,6,,,,,,"{""rep"":""pictures of entire lives""}",,,,,,,pictures of entire lives
,,Audio,audio-keyboard-response,102,638851,0.0-102.0,6,audio/mp3/conf-015.mp3,,,,,,,,,,15,conf-015.mp3,
,7502.6550000039,Retranscription,survey-html-form,103,646356,0.0-103.0,6,,,,,,"{""rep"":""of the choices that people ma""}",,,,,,,of the choices that people ma
,,Audio,audio-keyboard-response,104,650012,0.0-104.0,6,audio/mp3/conf-016.mp3,,,,,,,,,,16,conf-016.mp3,
,7500.2800000075,Retranscription,survey-html-form,105,657517,0.0-105.0,6,,,,,,"{""rep"":""and how those choises ""}",,,,,,,and how those choises 
,,Audio,audio-keyboard-response,106,661401,0.0-106.0,6,audio/mp3/conf-017.mp3,,,,,,,,,,17,conf-017.mp3,
,7501.1649999942,Retranscription,survey-html-form,107,668905,0.0-107.0,6,,,,,,"{""rep"":""those picture are almots impossible to""}",,,,,,,those picture are almots impossible to
,,Audio,audio-keyboard-response,108,672753,0.0-108.0,6,audio/mp3/conf-018.mp3,,,,,,,,,,18,conf-018.mp3,
,7500.1999999949,Retranscription,survey-html-form,109,680258,0.0-109.0,6,,,,,,"{""rep"":""most of what we kno""}",,,,,,,most of what we kno
,,Audio,audio-keyboard-response,110,684271,0.0-110.0,6,audio/mp3/conf-019.mp3,,,,,,,,,,19,conf-019.mp3,
,10001.089999991,Retranscription,survey-html-form,111,694274,0.0-111.0,6,,,,,,"{""rep"":""we know from asking people to rememeber the past""}",,,,,,,we know from asking people to rememeber the past
,,Audio,audio-keyboard-response,112,699991,0.0-112.0,6,audio/mp3/conf-020.mp3,,,,,,,,,,20,conf-020.mp3,
,12500.715000002,Retranscription,survey-html-form,113,712495,0.0-113.0,6,,,,,,"{""rep"":""and that we kinwo that insight is 2020""}",,,,,,,and that we kinwo that insight is 2020
,,Audio,audio-keyboard-response,114,716622,0.0-114.0,6,audio/mp3/conf-021.mp3,,,,,,,,,,21,conf-021.mp3,
,9999.5849999978,Retranscription,survey-html-form,115,726626,0.0-115.0,6,,,,,,"{""rep"":""we forget amounbts of what ""}",,,,,,,we forget amounbts of what 
,,Audio,audio-keyboard-response,116,730243,0.0-116.0,6,audio/mp3/conf-022.mp3,,,,,,,,,,22,conf-022.mp3,
,7497.8449999908,Retranscription,survey-html-form,117,737744,0.0-117.0,6,,,,,,"{""rep"":""and sometimes memory is cretive\n""}",,,,,,,"and sometimes memory is cretive
"
,,Audio,audio-keyboard-response,118,743142,0.0-118.0,6,audio/mp3/conf-023.mp3,,,,,,,,,,23,conf-023.mp3,
,12500.975000003,Retranscription,survey-html-form,119,755645,0.0-119.0,6,,,,,,"{""rep"":""but what if we could wath our entire lives""}",,,,,,,but what if we could wath our entire lives
,,Audio,audio-keyboard-response,120,759021,0.0-120.0,6,audio/mp3/conf-024.mp3,,,,,,,,,,24,conf-024.mp3,
,7502.2750000062,Retranscription,survey-html-form,121,766526,0.0-121.0,6,,,,,,"{""rep"":""as they unfold true time""}",,,,,,,as they unfold true time
,,Audio,audio-keyboard-response,122,769302,0.0-122.0,6,audio/mp3/conf-025.mp3,,,,,,,,,,25,conf-025.mp3,
,5000.3100000031,Retranscription,survey-html-form,123,774308,0.0-123.0,6,,,,,,"{""rep"":""what ""}",,,,,,,what 
,,Audio,audio-keyboard-response,124,780241,0.0-124.0,6,audio/mp3/conf-026.mp3,,,,,,,,,,26,conf-026.mp3,
,12501.434999998,Retranscription,survey-html-form,125,792745,0.0-125.0,6,,,,,,"{""rep"":""from the old age""}",,,,,,,from the old age
,,Audio,audio-keyboard-response,126,796763,0.0-126.0,6,audio/mp3/conf-027.mp3,,,,,,,,,,27,conf-027.mp3,
,9999.4599999918,Retranscription,survey-html-form,127,806767,0.0-127.0,6,,,,,,"{""rep"":""to see what keep people happey and healk""}",,,,,,,to see what keep people happey and healk
,,Audio,audio-keyboard-response,128,812434,0.0-128.0,6,audio/mp3/conf-028.mp3,,,,,,,,,,28,conf-028.mp3,
,12499.850000007,Retranscription,survey-html-form,129,824939,0.0-129.0,6,,,,,,"{""rep"":""we did that the sudy of adult development""}",,,,,,,we did that the sudy of adult development
,,Audio,audio-keyboard-response,130,830583,0.0-130.0,6,audio/mp3/conf-029.mp3,,,,,,,,,,29,conf-029.mp3,
,12501.409999997,Retranscription,survey-html-form,131,843087,0.0-131.0,6,,,,,,"{""rep"":""may be the ever been done""}",,,,,,,may be the ever been done
,,Audio,audio-keyboard-response,132,846273,0.0-132.0,6,audio/mp3/conf-030.mp3,,,,,,,,,,30,conf-030.mp3,
,7500.1899999916,Retranscription,survey-html-form,133,853775,0.0-133.0,6,,,,,,"{""rep"":""for 75 years""}",,,,,,,for 75 years
,,Audio,audio-keyboard-response,134,858832,0.0-134.0,6,audio/mp3/conf-031.mp3,,,,,,,,,,31,conf-031.mp3,
,12502.554999999,Retranscription,survey-html-form,135,871337,0.0-135.0,6,,,,,,"{""rep"":""we've tracked the live""}",,,,,,,we've tracked the live
,,Audio,audio-keyboard-response,136,876862,0.0-136.0,6,audio/mp3/conf-032.mp3,,,,,,,,,,32,conf-032.mp3,
,12501.240000012,Retranscription,survey-html-form,137,889367,0.0-137.0,6,,,,,,"{""rep"":""year after yeaer asking about their ""}",,,,,,,year after yeaer asking about their 
,,Audio,audio-keyboard-response,138,892613,0.0-138.0,6,audio/mp3/conf-033.mp3,,,,,,,,,,33,conf-033.mp3,
,7499.7900000017,Retranscription,survey-html-form,139,900117,0.0-139.0,6,,,,,,"{""rep"":""and of course asking all along the way ""}",,,,,,,and of course asking all along the way 
,,Audio,audio-keyboard-response,140,904272,0.0-140.0,6,audio/mp3/conf-034.mp3,,,,,,,,,,34,conf-034.mp3,
,10001.990000004,Retranscription,survey-html-form,141,914276,0.0-141.0,6,,,,,,"{""rep"":""without knowing how t""}",,,,,,,without knowing how t
,,Audio,audio-keyboard-response,142,918233,0.0-142.0,6,audio/mp3/conf-035.mp3,,,,,,,,,,35,conf-035.mp3,
,7500.7800000021,Retranscription,survey-html-form,143,925738,0.0-143.0,6,,,,,,"{""rep"":""studies like these are extremely ra""}",,,,,,,studies like these are extremely ra
,,Audio,audio-keyboard-response,144,930192,0.0-144.0,6,audio/mp3/conf-036.mp3,,,,,,,,,,36,conf-036.mp3,
,10002.259999994,Retranscription,survey-html-form,145,940197,0.0-145.0,6,,,,,,"{""rep"":""amolios:lkjuhs ji=fj$iop^sfd gh,pk$o^fdng x\n\n\n""}",,,,,,,"amolios:lkjuhs ji=fj$iop^sfd gh,pk$o^fdng x


"
,,Audio,audio-keyboard-response,146,943913,0.0-146.0,6,audio/mp3/conf-037.mp3,,,,,,,,,,37,conf-037.mp3,
,7499.290000007,Retranscription,survey-html-form,147,951416,0.0-147.0,6,,,,,,"{""rep"":""because too many peolple dropped ou""}",,,,,,,because too many peolple dropped ou
,,Audio,audio-keyboard-response,148,954792,0.0-148.0,6,audio/mp3/conf-038.mp3,,,,,,,,,,38,conf-038.mp3,
,7501.734999998,Retranscription,survey-html-form,149,962296,0.0-149.0,6,,,,,,"{""rep"":""were founding to the rzsion rise u""}",,,,,,,were founding to the rzsion rise u
,,Audio,audio-keyboard-response,150,966683,0.0-150.0,6,audio/mp3/conf-039.mp3,,,,,,,,,,39,conf-039.mp3,
,9999.1299999965,Retranscription,survey-html-form,151,976687,0.0-151.0,6,,,,,,"{""rep"":""of the reserarchers get distrcted or they died ""}",,,,,,,of the reserarchers get distrcted or they died 
,,Audio,audio-keyboard-response,152,980212,0.0-152.0,6,audio/mp3/conf-040.mp3,,,,,,,,,,40,conf-040.mp3,
,7501.0750000074,Retranscription,survey-html-form,153,987716,0.0-153.0,6,,,,,,"{""rep"":""and nobody moves the ball do""}",,,,,,,and nobody moves the ball do
,,Audio,audio-keyboard-response,154,990663,0.0-154.0,6,audio/mp3/conf-041.mp3,,,,,,,,,,41,conf-041.mp3,
